counterbalancing_condition,consent_prescreening.block_1/declare_consent,consent_prescreening.block_1/age_years,consent_prescreening.block_1/gender,consent_prescreening.block_1/language_disorder,consent_prescreening.block_1/first_language,PROLIFIC_PID,STUDY_ID,SESSION_ID,date,expName,psychopyVersion,OS,frameRate,check_prescreening_answers.started,check_prescreening_answers.stopped,Instructions.started,Instructions.stopped,instr_done_keyboard.keys,instr_done_touch.x,instr_done_touch.y,instr_done_touch.leftButton,instr_done_touch.midButton,instr_done_touch.rightButton,instr_done_touch.clicked_name,instruction_pages.thisRepN,instruction_pages.thisTrialN,instruction_pages.thisN,instruction_pages.thisIndex,instruction_pages.ran,pageN,phase,instruct_text,has_image,instruct_image,instr_done_keyboard.rt,instr_done_keyboard.duration,presentTrial.started,presentTrial.stopped,response.keys,response.corr,touch_resp.x,touch_resp.y,touch_resp.leftButton,touch_resp.midButton,touch_resp.rightButton,touch_resp.time,touch_resp.clicked_name,rt,corr,feedback.started,feedback.stopped,practice_trials.thisRepN,practice_trials.thisTrialN,practice_trials.thisN,practice_trials.thisIndex,practice_trials.ran,TrialID,StimulusType,Condition,PrimeDuration,Prime,Flanker,corrAns,response.rt,response.duration,Break.started,Break.stopped,break_done_touch.x,break_done_touch.y,break_done_touch.leftButton,break_done_touch.midButton,break_done_touch.rightButton,break_done_keyboard.keys,experiment_trials.thisRepN,experiment_trials.thisTrialN,experiment_trials.thisN,experiment_trials.thisIndex,experiment_trials.ran,break_done_keyboard.rt,break_done_keyboard.duration,End.started,End.stopped
2,"[""over_18"",""comfortable"",""read_info"",""consent_given""]",47,M,"[""none""]","[""spanish""]",d872a2c0dcf0a498b5e42410,66a626ef09d4e21e1a8894ec,6737680fcfadee3c453c0aff,2024-11-15_16h27.22.365,Tarea de género gramatical,2024.2.2,MacIntel,109.8901099,,,,,,,,,,,,,,,,,,,,,,,,,,,,,,,,,,,,,,,,,,,,,,,,,,,,,,,,,,,,,,,,,,,,,
,,,,,,d872a2c0dcf0a498b5e42410,66a626ef09d4e21e1a8894ec,6737680fcfadee3c453c0aff,2024-11-15_16h27.22.365,Tarea de género gramatical,2024.2.2,MacIntel,109.8901099,35.2961,35.2963,,,,,,,,,,,,,,,,,,,,,,,,,,,,,,,,,,,,,,,,,,,,,,,,,,,,,,,,,,,,,,,,,,,
,,,,,,d872a2c0dcf0a498b5e42410,66a626ef09d4e21e1a8894ec,6737680fcfadee3c453c0aff,2024-11-15_16h27.22.365,Tarea de género gramatical,2024.2.2,MacIntel,109.8901099,,,35.3126,83.069,,-0.038562335,-0.409986772,1,0,0,instr_done_button,0,0,0,0,1,1,instructions,"INSTRUCCIONES
Va a realizar una prueba de selección gramatical. Desde el comienzo de la prueba mire siempre al centro de la pantalla. Al cabo de un momento, aparecerán palabras. La tarea consiste en determinar si la palabra del centro (siempre será un sustantivo), pertenece al género masculino o femenino.

Pulse la tecla ESPACIO o toque el botón de abajo para continuar.",0,keyboardresponseMF.png,,,,,,,,,,,,,,,,,,,,,,,,,,,,,,,,,,,,,,,,,,,,,,,,
,,,,,,d872a2c0dcf0a498b5e42410,66a626ef09d4e21e1a8894ec,6737680fcfadee3c453c0aff,2024-11-15_16h27.22.365,Tarea de género gramatical,2024.2.2,MacIntel,109.8901099,,,83.0723,90.8599,space,-0.038562335,-0.410119048,0,0,0,,0,1,1,1,1,2,instructions,"Si su dispositivo tiene teclado, pulse la tecla ""A"" para las palabras en masculino (por ejemplo: ""arroz"") y la tecla ""L"" para las palabras en femenino (por ejemplo: ""mano"").
Pulse la tecla ESPACIO o toque el botón de abajo para continuar.",1,keyboardresponseMF.png,7.7566,,,,,,,,,,,,,,,,,,,,,,,,,,,,,,,,,,,,,,,,,,,,,,,
,,,,,,d872a2c0dcf0a498b5e42410,66a626ef09d4e21e1a8894ec,6737680fcfadee3c453c0aff,2024-11-15_16h27.22.365,Tarea de género gramatical,2024.2.2,MacIntel,109.8901099,,,90.862,100.3374,space,-0.038562335,-0.410119048,0,0,0,,0,2,2,2,1,3,instructions,"Si utiliza un dispositivo sólo táctil, colóquelo en horizontal y utilice los botones de la pantalla. No utilice el ratón.
Pulse la tecla ESPACIO o toque el botón de abajo para continuar.",2,touchresponseMF.png,9.4479,,,,,,,,,,,,,,,,,,,,,,,,,,,,,,,,,,,,,,,,,,,,,,,
,,,,,,d872a2c0dcf0a498b5e42410,66a626ef09d4e21e1a8894ec,6737680fcfadee3c453c0aff,2024-11-15_16h27.22.365,Tarea de género gramatical,2024.2.2,MacIntel,109.8901099,,,100.3387,109.9333,space,-0.038562335,-0.410119048,0,0,0,,0,3,3,3,1,4,instructions,"Es muy importante que responda con la mayor rapidez y precisión posibles, ya que cada cadena de letras sólo estará en pantalla durante un instante. Si no responde en ese tiempo, aparecerá el mensaje ""Muy lento"" y el experimento pasará a la siguiente palabra. Los primeros 15 intentos serán de práctica y habrá dos descansos durante la prueba.
Pulse la tecla ESPACIO o toque el botón de abajo para iniciar la parte de práctica.",0,keyboardresponseMF.png,9.5831,,,,,,,,,,,,,,,,,,,,,,,,,,,,,,,,,,,,,,,,,,,,,,,
,,,,,,d872a2c0dcf0a498b5e42410,66a626ef09d4e21e1a8894ec,6737680fcfadee3c453c0aff,2024-11-15_16h27.22.365,Tarea de género gramatical,2024.2.2,MacIntel,109.8901099,,,,,,,,,,,,,,,,,,,,,,,,109.952,112.6012,,0,[],[],[],[],[],[],[],,-1,112.6021,113.1006,0,0,0,7,1,2008,FEM,CON,150,siesta,,a,,,,,,,,,,,,,,,,,,,
,,,,,,d872a2c0dcf0a498b5e42410,66a626ef09d4e21e1a8894ec,6737680fcfadee3c453c0aff,2024-11-15_16h27.22.365,Tarea de género gramatical,2024.2.2,MacIntel,109.8901099,,,,,,,,,,,,,,,,,,,,,,,,113.1031,114.2338,a,0,[],[],[],[],[],[],[],0.4666,0,114.2557,114.7333,0,1,1,6,1,2007,FEM,AGR,150,navaja,la,a,0.4666,,,,,,,,,,,,,,,,,,
,,,,,,d872a2c0dcf0a498b5e42410,66a626ef09d4e21e1a8894ec,6737680fcfadee3c453c0aff,2024-11-15_16h27.22.365,Tarea de género gramatical,2024.2.2,MacIntel,109.8901099,,,,,,,,,,,,,,,,,,,,,,,,114.7347,117.3825,,0,[],[],[],[],[],[],[],0.4666,-1,117.384,117.8835,0,2,2,2,1,2003,FEM,DIS,150,daga,el,a,,,,,,,,,,,,,,,,,,,
,,,,,,d872a2c0dcf0a498b5e42410,66a626ef09d4e21e1a8894ec,6737680fcfadee3c453c0aff,2024-11-15_16h27.22.365,Tarea de género gramatical,2024.2.2,MacIntel,109.8901099,,,,,,,,,,,,,,,,,,,,,,,,117.886,119.1163,l,0,[],[],[],[],[],[],[],0.5685,0,119.1169,119.6164,0,3,3,12,1,2013,MAS,AGR,150,acero,el,l,0.5685,,,,,,,,,,,,,,,,,,
,,,,,,d872a2c0dcf0a498b5e42410,66a626ef09d4e21e1a8894ec,6737680fcfadee3c453c0aff,2024-11-15_16h27.22.365,Tarea de género gramatical,2024.2.2,MacIntel,109.8901099,,,,,,,,,,,,,,,,,,,,,,,,119.6177,121.0664,a,1,[],[],[],[],[],[],[],0.7815,1,121.0672,121.5665,0,4,4,10,1,2011,MAS,CON,150,canal,,l,0.7815,,,,,,,,,,,,,,,,,,
,,,,,,d872a2c0dcf0a498b5e42410,66a626ef09d4e21e1a8894ec,6737680fcfadee3c453c0aff,2024-11-15_16h27.22.365,Tarea de género gramatical,2024.2.2,MacIntel,109.8901099,,,,,,,,,,,,,,,,,,,,,,,,121.5689,122.5414,a,1,[],[],[],[],[],[],[],0.3087,1,122.5415,123.0414,0,5,5,13,1,2014,MAS,CON,150,siglo,,l,0.3087,,,,,,,,,,,,,,,,,,
,,,,,,d872a2c0dcf0a498b5e42410,66a626ef09d4e21e1a8894ec,6737680fcfadee3c453c0aff,2024-11-15_16h27.22.365,Tarea de género gramatical,2024.2.2,MacIntel,109.8901099,,,,,,,,,,,,,,,,,,,,,,,,123.0423,124.0654,a,1,[],[],[],[],[],[],[],0.3568,1,124.0655,124.567,0,6,6,9,1,2010,MAS,AGR,150,vecino,el,l,0.3568,,,,,,,,,,,,,,,,,,
,,,,,,d872a2c0dcf0a498b5e42410,66a626ef09d4e21e1a8894ec,6737680fcfadee3c453c0aff,2024-11-15_16h27.22.365,Tarea de género gramatical,2024.2.2,MacIntel,109.8901099,,,,,,,,,,,,,,,,,,,,,,,,124.5692,125.7499,l,0,[],[],[],[],[],[],[],0.5157,0,125.7517,126.2502,0,7,7,14,1,2015,MAS,DIS,150,robot,la,l,0.5157,,,,,,,,,,,,,,,,,,
,,,,,,d872a2c0dcf0a498b5e42410,66a626ef09d4e21e1a8894ec,6737680fcfadee3c453c0aff,2024-11-15_16h27.22.365,Tarea de género gramatical,2024.2.2,MacIntel,109.8901099,,,,,,,,,,,,,,,,,,,,,,,,126.2523,127.3158,a,1,[],[],[],[],[],[],[],0.4023,1,127.3165,127.8171,0,8,8,8,1,2009,MAS,DIS,150,puerto,la,l,0.4023,,,,,,,,,,,,,,,,,,
,,,,,,d872a2c0dcf0a498b5e42410,66a626ef09d4e21e1a8894ec,6737680fcfadee3c453c0aff,2024-11-15_16h27.22.365,Tarea de género gramatical,2024.2.2,MacIntel,109.8901099,,,,,,,,,,,,,,,,,,,,,,,,127.819,128.8996,l,1,[],[],[],[],[],[],[],0.4178,1,128.8998,129.3995,0,9,9,1,1,2002,FEM,CON,150,pala,,a,0.4178,,,,,,,,,,,,,,,,,,
,,,,,,d872a2c0dcf0a498b5e42410,66a626ef09d4e21e1a8894ec,6737680fcfadee3c453c0aff,2024-11-15_16h27.22.365,Tarea de género gramatical,2024.2.2,MacIntel,109.8901099,,,,,,,,,,,,,,,,,,,,,,,,129.4015,130.5576,l,1,[],[],[],[],[],[],[],0.4915,1,130.5577,131.0585,0,10,10,3,1,2004,FEM,AGR,150,venta,la,a,0.4915,,,,,,,,,,,,,,,,,,
,,,,,,d872a2c0dcf0a498b5e42410,66a626ef09d4e21e1a8894ec,6737680fcfadee3c453c0aff,2024-11-15_16h27.22.365,Tarea de género gramatical,2024.2.2,MacIntel,109.8901099,,,,,,,,,,,,,,,,,,,,,,,,131.0609,132.058,a,0,[],[],[],[],[],[],[],0.3351,0,132.059,132.5582,0,11,11,4,1,2005,FEM,CON,150,placa,,a,0.3351,,,,,,,,,,,,,,,,,,
,,,,,,d872a2c0dcf0a498b5e42410,66a626ef09d4e21e1a8894ec,6737680fcfadee3c453c0aff,2024-11-15_16h27.22.365,Tarea de género gramatical,2024.2.2,MacIntel,109.8901099,,,,,,,,,,,,,,,,,,,,,,,,132.5604,133.6832,l,1,[],[],[],[],[],[],[],0.4579,1,133.6855,134.1834,0,12,12,0,1,2001,FEM,AGR,150,nuca,la,a,0.4579,,,,,,,,,,,,,,,,,,
,,,,,,d872a2c0dcf0a498b5e42410,66a626ef09d4e21e1a8894ec,6737680fcfadee3c453c0aff,2024-11-15_16h27.22.365,Tarea de género gramatical,2024.2.2,MacIntel,109.8901099,,,,,,,,,,,,,,,,,,,,,,,,134.1851,135.1568,l,0,[],[],[],[],[],[],[],0.3099,0,135.1573,135.6574,0,13,13,11,1,2012,MAS,DIS,150,clima,la,l,0.3099,,,,,,,,,,,,,,,,,,
,,,,,,d872a2c0dcf0a498b5e42410,66a626ef09d4e21e1a8894ec,6737680fcfadee3c453c0aff,2024-11-15_16h27.22.365,Tarea de género gramatical,2024.2.2,MacIntel,109.8901099,,,,,,,,,,,,,,,,,,,,,,,,135.6591,137.0752,l,1,[],[],[],[],[],[],[],0.7506,1,137.0766,137.5742,0,14,14,5,1,2006,FEM,DIS,150,serie,el,a,0.7506,,,,,,,,,,,,,,,,,,
,,,,,,d872a2c0dcf0a498b5e42410,66a626ef09d4e21e1a8894ec,6737680fcfadee3c453c0aff,2024-11-15_16h27.22.365,Tarea de género gramatical,2024.2.2,MacIntel,109.8901099,,,189.6191,194.283,space,-0.038562335,-0.410119048,0,0,0,,,,,,,,,,,,4.6522,,194.317,196.5076,a,1,[],[],[],[],[],[],[],1.5299,1,196.5078,197.0082,,,,,,1307,MAS,AGR,150,jurado,el,l,1.5299,,197.009,197.0138,-0.038562335,-0.410119048,0,0,0,,0,0,0,406,1,,,,
,,,,,,d872a2c0dcf0a498b5e42410,66a626ef09d4e21e1a8894ec,6737680fcfadee3c453c0aff,2024-11-15_16h27.22.365,Tarea de género gramatical,2024.2.2,MacIntel,109.8901099,,,,,,,,,,,,,,,,,,,,,,,,197.0147,198.1742,l,1,[],[],[],[],[],[],[],0.5041,1,198.1743,198.6746,,,,,,1226,FEM,AGR,150,música,la,a,0.5041,,198.6748,198.6751,-0.038562335,-0.410119048,0,0,0,,0,1,1,325,1,,,,
,,,,,,d872a2c0dcf0a498b5e42410,66a626ef09d4e21e1a8894ec,6737680fcfadee3c453c0aff,2024-11-15_16h27.22.365,Tarea de género gramatical,2024.2.2,MacIntel,109.8901099,,,,,,,,,,,,,,,,,,,,,,,,198.677,199.8577,a,1,[],[],[],[],[],[],[],0.5161,1,199.8579,200.3583,,,,,,996,MAS,CON,150,pato,,l,0.5161,,200.3595,200.3602,-0.038562335,-0.410119048,0,0,0,,0,2,2,95,1,,,,
,,,,,,d872a2c0dcf0a498b5e42410,66a626ef09d4e21e1a8894ec,6737680fcfadee3c453c0aff,2024-11-15_16h27.22.365,Tarea de género gramatical,2024.2.2,MacIntel,109.8901099,,,,,,,,,,,,,,,,,,,,,,,,200.361,201.3991,l,1,[],[],[],[],[],[],[],0.3783,1,201.3992,201.8998,,,,,,1010,FEM,AGR,150,rosa,la,a,0.3783,,201.9,201.9002,-0.038562335,-0.410119048,0,0,0,,0,3,3,109,1,,,,
,,,,,,d872a2c0dcf0a498b5e42410,66a626ef09d4e21e1a8894ec,6737680fcfadee3c453c0aff,2024-11-15_16h27.22.365,Tarea de género gramatical,2024.2.2,MacIntel,109.8901099,,,,,,,,,,,,,,,,,,,,,,,,201.9019,203.0409,a,1,[],[],[],[],[],[],[],0.4746,1,203.0411,203.5413,,,,,,917,MAS,AGR,150,modo,el,l,0.4746,,203.5416,203.5418,-0.038562335,-0.410119048,0,0,0,,0,4,4,16,1,,,,
,,,,,,d872a2c0dcf0a498b5e42410,66a626ef09d4e21e1a8894ec,6737680fcfadee3c453c0aff,2024-11-15_16h27.22.365,Tarea de género gramatical,2024.2.2,MacIntel,109.8901099,,,,,,,,,,,,,,,,,,,,,,,,203.544,204.5747,l,1,[],[],[],[],[],[],[],0.3686,1,204.5749,205.0739,,,,,,951,FEM,CON,150,bala,,a,0.3686,,205.0741,205.0744,-0.038562335,-0.410119048,0,0,0,,0,5,5,50,1,,,,
,,,,,,d872a2c0dcf0a498b5e42410,66a626ef09d4e21e1a8894ec,6737680fcfadee3c453c0aff,2024-11-15_16h27.22.365,Tarea de género gramatical,2024.2.2,MacIntel,109.8901099,,,,,,,,,,,,,,,,,,,,,,,,205.0759,206.2657,a,1,[],[],[],[],[],[],[],0.5246,1,206.2659,206.7666,,,,,,1313,MAS,AGR,150,diario,el,l,0.5246,,206.7682,206.7695,-0.038562335,-0.410119048,0,0,0,,0,6,6,412,1,,,,
,,,,,,d872a2c0dcf0a498b5e42410,66a626ef09d4e21e1a8894ec,6737680fcfadee3c453c0aff,2024-11-15_16h27.22.365,Tarea de género gramatical,2024.2.2,MacIntel,109.8901099,,,,,,,,,,,,,,,,,,,,,,,,206.7706,207.9829,a,1,[],[],[],[],[],[],[],0.5494,1,207.9831,208.483,,,,,,982,MAS,DIS,150,tubo,la,l,0.5494,,208.4831,208.4834,-0.038562335,-0.410119048,0,0,0,,0,7,7,81,1,,,,
,,,,,,d872a2c0dcf0a498b5e42410,66a626ef09d4e21e1a8894ec,6737680fcfadee3c453c0aff,2024-11-15_16h27.22.365,Tarea de género gramatical,2024.2.2,MacIntel,109.8901099,,,,,,,,,,,,,,,,,,,,,,,,208.4856,209.4744,l,1,[],[],[],[],[],[],[],0.325,1,209.4746,209.9741,,,,,,1005,FEM,CON,150,jefa,,a,0.325,,209.9742,209.9743,-0.038562335,-0.410119048,0,0,0,,0,8,8,104,1,,,,
,,,,,,d872a2c0dcf0a498b5e42410,66a626ef09d4e21e1a8894ec,6737680fcfadee3c453c0aff,2024-11-15_16h27.22.365,Tarea de género gramatical,2024.2.2,MacIntel,109.8901099,,,,,,,,,,,,,,,,,,,,,,,,209.975,210.9566,l,1,[],[],[],[],[],[],[],0.318,1,210.9568,211.458,,,,,,1322,FEM,AGR,150,rutina,la,a,0.318,,211.4582,211.4585,-0.038562335,-0.410119048,0,0,0,,0,9,9,421,1,,,,
,,,,,,d872a2c0dcf0a498b5e42410,66a626ef09d4e21e1a8894ec,6737680fcfadee3c453c0aff,2024-11-15_16h27.22.365,Tarea de género gramatical,2024.2.2,MacIntel,109.8901099,,,,,,,,,,,,,,,,,,,,,,,,211.4602,212.5269,l,1,[],[],[],[],[],[],[],0.4066,1,212.527,213.024,,,,,,1118,FEM,AGR,150,nieve,la,a,0.4066,,213.0241,213.0243,-0.038562335,-0.410119048,0,0,0,,0,10,10,217,1,,,,
,,,,,,d872a2c0dcf0a498b5e42410,66a626ef09d4e21e1a8894ec,6737680fcfadee3c453c0aff,2024-11-15_16h27.22.365,Tarea de género gramatical,2024.2.2,MacIntel,109.8901099,,,,,,,,,,,,,,,,,,,,,,,,213.0255,214.091,a,1,[],[],[],[],[],[],[],0.4029,1,214.0911,214.5907,,,,,,1121,MAS,AGR,150,brazo,el,l,0.4029,,214.5923,214.5932,-0.038562335,-0.410119048,0,0,0,,0,11,11,220,1,,,,
,,,,,,d872a2c0dcf0a498b5e42410,66a626ef09d4e21e1a8894ec,6737680fcfadee3c453c0aff,2024-11-15_16h27.22.365,Tarea de género gramatical,2024.2.2,MacIntel,109.8901099,,,,,,,,,,,,,,,,,,,,,,,,214.5943,215.5743,a,1,[],[],[],[],[],[],[],0.3143,1,215.5743,216.0745,,,,,,1012,MAS,DIS,150,reto,la,l,0.3143,,216.0747,216.0749,-0.038562335,-0.410119048,0,0,0,,0,12,12,111,1,,,,
,,,,,,d872a2c0dcf0a498b5e42410,66a626ef09d4e21e1a8894ec,6737680fcfadee3c453c0aff,2024-11-15_16h27.22.365,Tarea de género gramatical,2024.2.2,MacIntel,109.8901099,,,,,,,,,,,,,,,,,,,,,,,,216.0768,217.2329,l,1,[],[],[],[],[],[],[],0.4924,1,217.2332,217.7329,,,,,,1141,FEM,DIS,150,pasta,el,a,0.4924,,217.7332,217.7335,-0.038562335,-0.410119048,0,0,0,,0,13,13,240,1,,,,
,,,,,,d872a2c0dcf0a498b5e42410,66a626ef09d4e21e1a8894ec,6737680fcfadee3c453c0aff,2024-11-15_16h27.22.365,Tarea de género gramatical,2024.2.2,MacIntel,109.8901099,,,,,,,,,,,,,,,,,,,,,,,,217.7354,218.7577,a,1,[],[],[],[],[],[],[],0.3615,1,218.7578,219.258,,,,,,1348,MAS,DIS,150,aceite,la,l,0.3615,,219.258,219.2582,-0.038562335,-0.410119048,0,0,0,,0,14,14,447,1,,,,
,,,,,,d872a2c0dcf0a498b5e42410,66a626ef09d4e21e1a8894ec,6737680fcfadee3c453c0aff,2024-11-15_16h27.22.365,Tarea de género gramatical,2024.2.2,MacIntel,109.8901099,,,,,,,,,,,,,,,,,,,,,,,,219.2596,220.3416,l,1,[],[],[],[],[],[],[],0.4217,1,220.3417,220.8409,,,,,,1165,FEM,DIS,150,rueda,el,a,0.4217,,220.8431,220.8446,-0.038562335,-0.410119048,0,0,0,,0,15,15,264,1,,,,
,,,,,,d872a2c0dcf0a498b5e42410,66a626ef09d4e21e1a8894ec,6737680fcfadee3c453c0aff,2024-11-15_16h27.22.365,Tarea de género gramatical,2024.2.2,MacIntel,109.8901099,,,,,,,,,,,,,,,,,,,,,,,,220.8455,221.8825,l,1,[],[],[],[],[],[],[],0.3741,1,221.8825,222.3824,,,,,,1297,FEM,DIS,150,cuerda,el,a,0.3741,,222.3825,222.3826,-0.038562335,-0.410119048,0,0,0,,0,16,16,396,1,,,,
,,,,,,d872a2c0dcf0a498b5e42410,66a626ef09d4e21e1a8894ec,6737680fcfadee3c453c0aff,2024-11-15_16h27.22.365,Tarea de género gramatical,2024.2.2,MacIntel,109.8901099,,,,,,,,,,,,,,,,,,,,,,,,222.3842,223.3334,a,1,[],[],[],[],[],[],[],0.2876,1,223.3335,223.8329,,,,,,1319,MAS,AGR,150,cuento,el,l,0.2876,,223.8332,223.8333,-0.038562335,-0.410119048,0,0,0,,0,17,17,418,1,,,,
,,,,,,d872a2c0dcf0a498b5e42410,66a626ef09d4e21e1a8894ec,6737680fcfadee3c453c0aff,2024-11-15_16h27.22.365,Tarea de género gramatical,2024.2.2,MacIntel,109.8901099,,,,,,,,,,,,,,,,,,,,,,,,223.8355,224.9247,a,1,[],[],[],[],[],[],[],0.4256,1,224.9249,225.4247,,,,,,1260,MAS,CON,150,puente,,l,0.4256,,225.4249,225.425,-0.038562335,-0.410119048,0,0,0,,0,18,18,359,1,,,,
,,,,,,d872a2c0dcf0a498b5e42410,66a626ef09d4e21e1a8894ec,6737680fcfadee3c453c0aff,2024-11-15_16h27.22.365,Tarea de género gramatical,2024.2.2,MacIntel,109.8901099,,,,,,,,,,,,,,,,,,,,,,,,225.4265,226.3737,a,1,[],[],[],[],[],[],[],0.2858,1,226.3738,226.8745,,,,,,1079,MAS,AGR,150,viaje,el,l,0.2858,,226.8747,226.8747,-0.038562335,-0.410119048,0,0,0,,0,19,19,178,1,,,,
,,,,,,d872a2c0dcf0a498b5e42410,66a626ef09d4e21e1a8894ec,6737680fcfadee3c453c0aff,2024-11-15_16h27.22.365,Tarea de género gramatical,2024.2.2,MacIntel,109.8901099,,,,,,,,,,,,,,,,,,,,,,,,226.8772,227.7748,a,1,[],[],[],[],[],[],[],0.2334,1,227.775,228.2735,,,,,,1144,MAS,DIS,150,hielo,la,l,0.2334,,228.2751,228.2761,-0.038562335,-0.410119048,0,0,0,,0,20,20,243,1,,,,
,,,,,,d872a2c0dcf0a498b5e42410,66a626ef09d4e21e1a8894ec,6737680fcfadee3c453c0aff,2024-11-15_16h27.22.365,Tarea de género gramatical,2024.2.2,MacIntel,109.8901099,,,,,,,,,,,,,,,,,,,,,,,,228.2768,229.2819,l,1,[],[],[],[],[],[],[],0.3414,1,229.282,229.7831,,,,,,1094,FEM,AGR,150,banda,la,a,0.3414,,229.7832,229.7835,-0.038562335,-0.410119048,0,0,0,,0,21,21,193,1,,,,
,,,,,,d872a2c0dcf0a498b5e42410,66a626ef09d4e21e1a8894ec,6737680fcfadee3c453c0aff,2024-11-15_16h27.22.365,Tarea de género gramatical,2024.2.2,MacIntel,109.8901099,,,,,,,,,,,,,,,,,,,,,,,,229.7854,230.7326,a,1,[],[],[],[],[],[],[],0.2826,1,230.7328,231.2323,,,,,,1288,MAS,DIS,150,empleo,la,l,0.2826,,231.2323,231.2323,-0.038562335,-0.410119048,0,0,0,,0,22,22,387,1,,,,
,,,,,,d872a2c0dcf0a498b5e42410,66a626ef09d4e21e1a8894ec,6737680fcfadee3c453c0aff,2024-11-15_16h27.22.365,Tarea de género gramatical,2024.2.2,MacIntel,109.8901099,,,,,,,,,,,,,,,,,,,,,,,,231.2328,232.2241,l,0,[],[],[],[],[],[],[],0.3315,0,232.2247,232.7244,,,,,,1019,MAS,AGR,150,mito,el,l,0.3315,,232.7245,232.7245,-0.038562335,-0.410119048,0,0,0,,0,23,23,118,1,,,,
,,,,,,d872a2c0dcf0a498b5e42410,66a626ef09d4e21e1a8894ec,6737680fcfadee3c453c0aff,2024-11-15_16h27.22.365,Tarea de género gramatical,2024.2.2,MacIntel,109.8901099,,,,,,,,,,,,,,,,,,,,,,,,232.726,233.6742,a,1,[],[],[],[],[],[],[],0.2836,1,233.6751,234.1746,,,,,,1211,MAS,AGR,150,camino,el,l,0.2836,,234.1768,234.1777,-0.038562335,-0.410119048,0,0,0,,0,24,24,310,1,,,,
,,,,,,d872a2c0dcf0a498b5e42410,66a626ef09d4e21e1a8894ec,6737680fcfadee3c453c0aff,2024-11-15_16h27.22.365,Tarea de género gramatical,2024.2.2,MacIntel,109.8901099,,,,,,,,,,,,,,,,,,,,,,,,234.1782,235.1419,a,0,[],[],[],[],[],[],[],0.3033,0,235.1449,235.6409,,,,,,1081,FEM,DIS,150,tarde,el,a,0.3033,,235.641,235.6412,-0.038562335,-0.410119048,0,0,0,,0,25,25,180,1,,,,
,,,,,,d872a2c0dcf0a498b5e42410,66a626ef09d4e21e1a8894ec,6737680fcfadee3c453c0aff,2024-11-15_16h27.22.365,Tarea de género gramatical,2024.2.2,MacIntel,109.8901099,,,,,,,,,,,,,,,,,,,,,,,,235.6436,236.7518,l,1,[],[],[],[],[],[],[],0.4462,1,236.753,237.2492,,,,,,914,FEM,AGR,150,cara,la,a,0.4462,,237.2493,237.2495,-0.038562335,-0.410119048,0,0,0,,0,26,26,13,1,,,,
,,,,,,d872a2c0dcf0a498b5e42410,66a626ef09d4e21e1a8894ec,6737680fcfadee3c453c0aff,2024-11-15_16h27.22.365,Tarea de género gramatical,2024.2.2,MacIntel,109.8901099,,,,,,,,,,,,,,,,,,,,,,,,237.2507,238.2408,l,1,[],[],[],[],[],[],[],0.3269,1,238.2408,238.7411,,,,,,1220,FEM,AGR,150,fiesta,la,a,0.3269,,238.7412,238.7414,-0.038562335,-0.410119048,0,0,0,,0,27,27,319,1,,,,
,,,,,,d872a2c0dcf0a498b5e42410,66a626ef09d4e21e1a8894ec,6737680fcfadee3c453c0aff,2024-11-15_16h27.22.365,Tarea de género gramatical,2024.2.2,MacIntel,109.8901099,,,,,,,,,,,,,,,,,,,,,,,,238.7433,239.9065,l,1,[],[],[],[],[],[],[],0.5023,1,239.9066,240.407,,,,,,1095,FEM,CON,150,pared,,a,0.5023,,240.4071,240.4073,-0.038562335,-0.410119048,0,0,0,,0,28,28,194,1,,,,
,,,,,,d872a2c0dcf0a498b5e42410,66a626ef09d4e21e1a8894ec,6737680fcfadee3c453c0aff,2024-11-15_16h27.22.365,Tarea de género gramatical,2024.2.2,MacIntel,109.8901099,,,,,,,,,,,,,,,,,,,,,,,,240.4085,241.4321,l,1,[],[],[],[],[],[],[],0.3623,1,241.4321,241.9326,,,,,,1065,FEM,CON,150,amiga,,a,0.3623,,241.9344,241.9358,-0.038562335,-0.410119048,0,0,0,,0,29,29,164,1,,,,
,,,,,,d872a2c0dcf0a498b5e42410,66a626ef09d4e21e1a8894ec,6737680fcfadee3c453c0aff,2024-11-15_16h27.22.365,Tarea de género gramatical,2024.2.2,MacIntel,109.8901099,,,,,,,,,,,,,,,,,,,,,,,,241.9367,242.9396,a,1,[],[],[],[],[],[],[],0.3394,1,242.9397,243.4413,,,,,,1102,MAS,DIS,150,honor,la,l,0.3394,,243.4414,243.4416,-0.038562335,-0.410119048,0,0,0,,0,30,30,201,1,,,,
,,,,,,d872a2c0dcf0a498b5e42410,66a626ef09d4e21e1a8894ec,6737680fcfadee3c453c0aff,2024-11-15_16h27.22.365,Tarea de género gramatical,2024.2.2,MacIntel,109.8901099,,,,,,,,,,,,,,,,,,,,,,,,243.4437,244.691,a,1,[],[],[],[],[],[],[],0.5855,1,244.691,245.1911,,,,,,1277,MAS,AGR,150,jardín,el,l,0.5855,,245.1912,245.1914,-0.038562335,-0.410119048,0,0,0,,0,31,31,376,1,,,,
,,,,,,d872a2c0dcf0a498b5e42410,66a626ef09d4e21e1a8894ec,6737680fcfadee3c453c0aff,2024-11-15_16h27.22.365,Tarea de género gramatical,2024.2.2,MacIntel,109.8901099,,,,,,,,,,,,,,,,,,,,,,,,245.1933,246.1821,a,1,[],[],[],[],[],[],[],0.3271,1,246.1822,246.6829,,,,,,1264,MAS,DIS,150,viento,la,l,0.3271,,246.6831,246.6833,-0.038562335,-0.410119048,0,0,0,,0,32,32,363,1,,,,
,,,,,,d872a2c0dcf0a498b5e42410,66a626ef09d4e21e1a8894ec,6737680fcfadee3c453c0aff,2024-11-15_16h27.22.365,Tarea de género gramatical,2024.2.2,MacIntel,109.8901099,,,,,,,,,,,,,,,,,,,,,,,,246.6851,247.6407,a,1,[],[],[],[],[],[],[],0.2916,1,247.6408,248.1411,,,,,,1284,MAS,CON,150,pedazo,,l,0.2916,,248.1426,248.1438,-0.038562335,-0.410119048,0,0,0,,0,33,33,383,1,,,,
,,,,,,d872a2c0dcf0a498b5e42410,66a626ef09d4e21e1a8894ec,6737680fcfadee3c453c0aff,2024-11-15_16h27.22.365,Tarea de género gramatical,2024.2.2,MacIntel,109.8901099,,,,,,,,,,,,,,,,,,,,,,,,248.1451,249.0992,l,1,[],[],[],[],[],[],[],0.2945,1,249.0992,249.5994,,,,,,1202,FEM,AGR,150,cabeza,la,a,0.2945,,249.5995,249.5997,-0.038562335,-0.410119048,0,0,0,,0,34,34,301,1,,,,
,,,,,,d872a2c0dcf0a498b5e42410,66a626ef09d4e21e1a8894ec,6737680fcfadee3c453c0aff,2024-11-15_16h27.22.365,Tarea de género gramatical,2024.2.2,MacIntel,109.8901099,,,,,,,,,,,,,,,,,,,,,,,,249.6019,250.6317,l,1,[],[],[],[],[],[],[],0.3696,1,250.6317,251.132,,,,,,1022,FEM,AGR,150,loca,la,a,0.3696,,251.1322,251.1322,-0.038562335,-0.410119048,0,0,0,,0,35,35,121,1,,,,
,,,,,,d872a2c0dcf0a498b5e42410,66a626ef09d4e21e1a8894ec,6737680fcfadee3c453c0aff,2024-11-15_16h27.22.365,Tarea de género gramatical,2024.2.2,MacIntel,109.8901099,,,,,,,,,,,,,,,,,,,,,,,,251.1336,252.1985,l,1,[],[],[],[],[],[],[],0.404,1,252.1986,252.6983,,,,,,931,FEM,DIS,150,edad,el,a,0.404,,252.6985,252.6987,-0.038562335,-0.410119048,0,0,0,,0,36,36,30,1,,,,
,,,,,,d872a2c0dcf0a498b5e42410,66a626ef09d4e21e1a8894ec,6737680fcfadee3c453c0aff,2024-11-15_16h27.22.365,Tarea de género gramatical,2024.2.2,MacIntel,109.8901099,,,,,,,,,,,,,,,,,,,,,,,,252.7008,253.7575,l,1,[],[],[],[],[],[],[],0.3915,1,253.7576,254.2576,,,,,,933,FEM,CON,150,boda,,a,0.3915,,254.2578,254.2579,-0.038562335,-0.410119048,0,0,0,,0,37,37,32,1,,,,
,,,,,,d872a2c0dcf0a498b5e42410,66a626ef09d4e21e1a8894ec,6737680fcfadee3c453c0aff,2024-11-15_16h27.22.365,Tarea de género gramatical,2024.2.2,MacIntel,109.8901099,,,,,,,,,,,,,,,,,,,,,,,,254.2592,255.3907,a,1,[],[],[],[],[],[],[],0.4663,1,255.3908,255.89,,,,,,1253,MAS,AGR,150,verano,el,l,0.4663,,255.8923,255.8936,-0.038562335,-0.410119048,0,0,0,,0,38,38,352,1,,,,
,,,,,,d872a2c0dcf0a498b5e42410,66a626ef09d4e21e1a8894ec,6737680fcfadee3c453c0aff,2024-11-15_16h27.22.365,Tarea de género gramatical,2024.2.2,MacIntel,109.8901099,,,,,,,,,,,,,,,,,,,,,,,,255.8946,256.8733,a,0,[],[],[],[],[],[],[],0.3173,0,256.8743,257.374,,,,,,1340,FEM,AGR,150,patada,la,a,0.3173,,257.3742,257.3743,-0.038562335,-0.410119048,0,0,0,,0,39,39,439,1,,,,
,,,,,,d872a2c0dcf0a498b5e42410,66a626ef09d4e21e1a8894ec,6737680fcfadee3c453c0aff,2024-11-15_16h27.22.365,Tarea de género gramatical,2024.2.2,MacIntel,109.8901099,,,,,,,,,,,,,,,,,,,,,,,,257.376,258.3741,a,1,[],[],[],[],[],[],[],0.3375,1,258.3749,258.8738,,,,,,1338,MAS,CON,150,tanque,,l,0.3375,,258.8739,258.8741,-0.038562335,-0.410119048,0,0,0,,0,40,40,437,1,,,,
,,,,,,d872a2c0dcf0a498b5e42410,66a626ef09d4e21e1a8894ec,6737680fcfadee3c453c0aff,2024-11-15_16h27.22.365,Tarea de género gramatical,2024.2.2,MacIntel,109.8901099,,,,,,,,,,,,,,,,,,,,,,,,258.8755,259.9155,a,1,[],[],[],[],[],[],[],0.3753,1,259.9155,260.416,,,,,,1272,MAS,CON,150,delito,,l,0.3753,,260.4162,260.4164,-0.038562335,-0.410119048,0,0,0,,0,41,41,371,1,,,,
,,,,,,d872a2c0dcf0a498b5e42410,66a626ef09d4e21e1a8894ec,6737680fcfadee3c453c0aff,2024-11-15_16h27.22.365,Tarea de género gramatical,2024.2.2,MacIntel,109.8901099,,,,,,,,,,,,,,,,,,,,,,,,260.4186,261.4575,l,1,[],[],[],[],[],[],[],0.3755,1,261.4575,261.9573,,,,,,1004,FEM,AGR,150,vela,la,a,0.3755,,261.958,261.9584,-0.038562335,-0.410119048,0,0,0,,0,42,42,103,1,,,,
,,,,,,d872a2c0dcf0a498b5e42410,66a626ef09d4e21e1a8894ec,6737680fcfadee3c453c0aff,2024-11-15_16h27.22.365,Tarea de género gramatical,2024.2.2,MacIntel,109.8901099,,,,,,,,,,,,,,,,,,,,,,,,261.9588,262.9158,a,1,[],[],[],[],[],[],[],0.2922,1,262.9159,263.4155,,,,,,1044,MAS,CON,150,amor,,l,0.2922,,263.4156,263.4157,-0.038562335,-0.410119048,0,0,0,,0,43,43,143,1,,,,
,,,,,,d872a2c0dcf0a498b5e42410,66a626ef09d4e21e1a8894ec,6737680fcfadee3c453c0aff,2024-11-15_16h27.22.365,Tarea de género gramatical,2024.2.2,MacIntel,109.8901099,,,,,,,,,,,,,,,,,,,,,,,,263.4171,264.6574,a,1,[],[],[],[],[],[],[],0.5764,1,264.6575,265.1578,,,,,,1168,MAS,DIS,150,truco,la,l,0.5764,,265.158,265.1582,-0.038562335,-0.410119048,0,0,0,,0,44,44,267,1,,,,
,,,,,,d872a2c0dcf0a498b5e42410,66a626ef09d4e21e1a8894ec,6737680fcfadee3c453c0aff,2024-11-15_16h27.22.365,Tarea de género gramatical,2024.2.2,MacIntel,109.8901099,,,,,,,,,,,,,,,,,,,,,,,,265.1609,266.2321,l,1,[],[],[],[],[],[],[],0.4085,1,266.2322,266.7328,,,,,,1149,FEM,CON,150,crema,,a,0.4085,,266.733,266.7331,-0.038562335,-0.410119048,0,0,0,,0,45,45,248,1,,,,
,,,,,,d872a2c0dcf0a498b5e42410,66a626ef09d4e21e1a8894ec,6737680fcfadee3c453c0aff,2024-11-15_16h27.22.365,Tarea de género gramatical,2024.2.2,MacIntel,109.8901099,,,,,,,,,,,,,,,,,,,,,,,,266.7351,267.7148,a,0,[],[],[],[],[],[],[],0.3188,0,267.7154,268.2161,,,,,,986,FEM,AGR,150,cruz,la,a,0.3188,,268.2162,268.2164,-0.038562335,-0.410119048,0,0,0,,0,46,46,85,1,,,,
,,,,,,d872a2c0dcf0a498b5e42410,66a626ef09d4e21e1a8894ec,6737680fcfadee3c453c0aff,2024-11-15_16h27.22.365,Tarea de género gramatical,2024.2.2,MacIntel,109.8901099,,,,,,,,,,,,,,,,,,,,,,,,268.2182,269.3739,a,1,[],[],[],[],[],[],[],0.4937,1,269.3748,269.8744,,,,,,1043,MAS,AGR,150,faro,el,l,0.4937,,269.8762,269.8774,-0.038562335,-0.410119048,0,0,0,,0,47,47,142,1,,,,
,,,,,,d872a2c0dcf0a498b5e42410,66a626ef09d4e21e1a8894ec,6737680fcfadee3c453c0aff,2024-11-15_16h27.22.365,Tarea de género gramatical,2024.2.2,MacIntel,109.8901099,,,,,,,,,,,,,,,,,,,,,,,,269.8782,270.9907,l,1,[],[],[],[],[],[],[],0.4515,1,270.9909,271.4899,,,,,,969,FEM,CON,150,rata,,a,0.4515,,271.4902,271.4905,-0.038562335,-0.410119048,0,0,0,,0,48,48,68,1,,,,
,,,,,,d872a2c0dcf0a498b5e42410,66a626ef09d4e21e1a8894ec,6737680fcfadee3c453c0aff,2024-11-15_16h27.22.365,Tarea de género gramatical,2024.2.2,MacIntel,109.8901099,,,,,,,,,,,,,,,,,,,,,,,,271.4921,272.4906,a,1,[],[],[],[],[],[],[],0.3365,1,272.4908,272.9909,,,,,,918,MAS,CON,150,tren,,l,0.3365,,272.991,272.9911,-0.038562335,-0.410119048,0,0,0,,0,49,49,17,1,,,,
,,,,,,d872a2c0dcf0a498b5e42410,66a626ef09d4e21e1a8894ec,6737680fcfadee3c453c0aff,2024-11-15_16h27.22.365,Tarea de género gramatical,2024.2.2,MacIntel,109.8901099,,,,,,,,,,,,,,,,,,,,,,,,272.9922,274.0573,a,1,[],[],[],[],[],[],[],0.4006,1,274.0575,274.5576,,,,,,965,MAS,AGR,150,rayo,el,l,0.4006,,274.5577,274.5579,-0.038562335,-0.410119048,0,0,0,,0,50,50,64,1,,,,
,,,,,,d872a2c0dcf0a498b5e42410,66a626ef09d4e21e1a8894ec,6737680fcfadee3c453c0aff,2024-11-15_16h27.22.365,Tarea de género gramatical,2024.2.2,MacIntel,109.8901099,,,,,,,,,,,,,,,,,,,,,,,,274.5592,275.6157,l,1,[],[],[],[],[],[],[],0.3924,1,275.6158,276.1155,,,,,,992,FEM,AGR,150,masa,la,a,0.3924,,276.1163,276.1168,-0.038562335,-0.410119048,0,0,0,,0,51,51,91,1,,,,
,,,,,,d872a2c0dcf0a498b5e42410,66a626ef09d4e21e1a8894ec,6737680fcfadee3c453c0aff,2024-11-15_16h27.22.365,Tarea de género gramatical,2024.2.2,MacIntel,109.8901099,,,,,,,,,,,,,,,,,,,,,,,,276.1174,277.174,a,1,[],[],[],[],[],[],[],0.3915,1,277.1741,277.6732,,,,,,1186,MAS,DIS,150,reino,la,l,0.3915,,277.6733,277.6735,-0.038562335,-0.410119048,0,0,0,,0,52,52,285,1,,,,
,,,,,,d872a2c0dcf0a498b5e42410,66a626ef09d4e21e1a8894ec,6737680fcfadee3c453c0aff,2024-11-15_16h27.22.365,Tarea de género gramatical,2024.2.2,MacIntel,109.8901099,,,,,,,,,,,,,,,,,,,,,,,,277.6763,278.7232,l,1,[],[],[],[],[],[],[],0.3919,1,278.7233,279.2233,,,,,,1063,FEM,DIS,150,calle,el,a,0.3919,,279.2236,279.2237,-0.038562335,-0.410119048,0,0,0,,0,53,53,162,1,,,,
,,,,,,d872a2c0dcf0a498b5e42410,66a626ef09d4e21e1a8894ec,6737680fcfadee3c453c0aff,2024-11-15_16h27.22.365,Tarea de género gramatical,2024.2.2,MacIntel,109.8901099,,,,,,,,,,,,,,,,,,,,,,,,279.2258,280.274,l,1,[],[],[],[],[],[],[],0.3844,1,280.2742,280.774,,,,,,1161,FEM,CON,150,cueva,,a,0.3844,,280.7741,280.7742,-0.038562335,-0.410119048,0,0,0,,0,54,54,260,1,,,,
,,,,,,d872a2c0dcf0a498b5e42410,66a626ef09d4e21e1a8894ec,6737680fcfadee3c453c0aff,2024-11-15_16h27.22.365,Tarea de género gramatical,2024.2.2,MacIntel,109.8901099,,,,,,,,,,,,,,,,,,,,,,,,280.7755,281.7575,a,1,[],[],[],[],[],[],[],0.318,1,281.7575,282.2578,,,,,,977,MAS,AGR,150,pico,el,l,0.318,,282.2579,282.2581,-0.038562335,-0.410119048,0,0,0,,0,55,55,76,1,,,,
,,,,,,d872a2c0dcf0a498b5e42410,66a626ef09d4e21e1a8894ec,6737680fcfadee3c453c0aff,2024-11-15_16h27.22.365,Tarea de género gramatical,2024.2.2,MacIntel,109.8901099,,,,,,,,,,,,,,,,,,,,,,,,282.26,283.3405,a,1,[],[],[],[],[],[],[],0.4156,1,283.3407,283.8409,,,,,,1108,MAS,DIS,150,suelo,la,l,0.4156,,283.843,283.8441,-0.038562335,-0.410119048,0,0,0,,0,56,56,207,1,,,,
,,,,,,d872a2c0dcf0a498b5e42410,66a626ef09d4e21e1a8894ec,6737680fcfadee3c453c0aff,2024-11-15_16h27.22.365,Tarea de género gramatical,2024.2.2,MacIntel,109.8901099,,,,,,,,,,,,,,,,,,,,,,,,283.8449,284.8655,l,1,[],[],[],[],[],[],[],0.3609,1,284.8656,285.3654,,,,,,1287,FEM,CON,150,página,,a,0.3609,,285.3656,285.3658,-0.038562335,-0.410119048,0,0,0,,0,57,57,386,1,,,,
,,,,,,d872a2c0dcf0a498b5e42410,66a626ef09d4e21e1a8894ec,6737680fcfadee3c453c0aff,2024-11-15_16h27.22.365,Tarea de género gramatical,2024.2.2,MacIntel,109.8901099,,,,,,,,,,,,,,,,,,,,,,,,285.3677,286.4562,a,1,[],[],[],[],[],[],[],0.4259,1,286.4563,286.9573,,,,,,1188,MAS,CON,150,grado,,l,0.4259,,286.9573,286.9574,-0.038562335,-0.410119048,0,0,0,,0,58,58,287,1,,,,
,,,,,,d872a2c0dcf0a498b5e42410,66a626ef09d4e21e1a8894ec,6737680fcfadee3c453c0aff,2024-11-15_16h27.22.365,Tarea de género gramatical,2024.2.2,MacIntel,109.8901099,,,,,,,,,,,,,,,,,,,,,,,,286.9583,287.9323,l,1,[],[],[],[],[],[],[],0.3089,1,287.9325,288.4322,,,,,,1136,FEM,AGR,150,deuda,la,a,0.3089,,288.4323,288.4324,-0.038562335,-0.410119048,0,0,0,,0,59,59,235,1,,,,
,,,,,,d872a2c0dcf0a498b5e42410,66a626ef09d4e21e1a8894ec,6737680fcfadee3c453c0aff,2024-11-15_16h27.22.365,Tarea de género gramatical,2024.2.2,MacIntel,109.8901099,,,,,,,,,,,,,,,,,,,,,,,,288.4337,289.3816,l,1,[],[],[],[],[],[],[],0.2879,1,289.3817,289.8818,,,,,,1335,FEM,CON,150,niebla,,a,0.2879,,289.8839,289.8851,-0.038562335,-0.410119048,0,0,0,,0,60,60,434,1,,,,
,,,,,,d872a2c0dcf0a498b5e42410,66a626ef09d4e21e1a8894ec,6737680fcfadee3c453c0aff,2024-11-15_16h27.22.365,Tarea de género gramatical,2024.2.2,MacIntel,109.8901099,,,,,,,,,,,,,,,,,,,,,,,,289.8859,290.7983,l,1,[],[],[],[],[],[],[],0.2516,1,290.7984,291.2992,,,,,,1292,FEM,AGR,150,maleta,la,a,0.2516,,291.2994,291.2996,-0.038562335,-0.410119048,0,0,0,,0,61,61,391,1,,,,
,,,,,,d872a2c0dcf0a498b5e42410,66a626ef09d4e21e1a8894ec,6737680fcfadee3c453c0aff,2024-11-15_16h27.22.365,Tarea de género gramatical,2024.2.2,MacIntel,109.8901099,,,,,,,,,,,,,,,,,,,,,,,,291.3008,292.224,l,1,[],[],[],[],[],[],[],0.2623,1,292.2241,292.7238,,,,,,1071,FEM,CON,150,mitad,,a,0.2623,,292.724,292.7242,-0.038562335,-0.410119048,0,0,0,,0,62,62,170,1,,,,
,,,,,,d872a2c0dcf0a498b5e42410,66a626ef09d4e21e1a8894ec,6737680fcfadee3c453c0aff,2024-11-15_16h27.22.365,Tarea de género gramatical,2024.2.2,MacIntel,109.8901099,,,,,,,,,,,,,,,,,,,,,,,,292.726,293.6994,l,1,[],[],[],[],[],[],[],0.3116,1,293.6996,294.1993,,,,,,1323,FEM,CON,150,poesía,,a,0.3116,,294.1994,294.1996,-0.038562335,-0.410119048,0,0,0,,0,63,63,422,1,,,,
,,,,,,d872a2c0dcf0a498b5e42410,66a626ef09d4e21e1a8894ec,6737680fcfadee3c453c0aff,2024-11-15_16h27.22.365,Tarea de género gramatical,2024.2.2,MacIntel,109.8901099,,,,,,,,,,,,,,,,,,,,,,,,294.2017,295.1742,a,1,[],[],[],[],[],[],[],0.3118,1,295.1744,295.6746,,,,,,1222,MAS,DIS,150,minuto,la,l,0.3118,,295.6747,295.6749,-0.038562335,-0.410119048,0,0,0,,0,64,64,321,1,,,,
,,,,,,d872a2c0dcf0a498b5e42410,66a626ef09d4e21e1a8894ec,6737680fcfadee3c453c0aff,2024-11-15_16h27.22.365,Tarea de género gramatical,2024.2.2,MacIntel,109.8901099,,,,,,,,,,,,,,,,,,,,,,,,295.6768,296.5905,l,1,[],[],[],[],[],[],[],0.2502,1,296.5906,297.0909,,,,,,1029,FEM,CON,150,rana,,a,0.2502,,297.0931,297.0946,-0.038562335,-0.410119048,0,0,0,,0,65,65,128,1,,,,
,,,,,,d872a2c0dcf0a498b5e42410,66a626ef09d4e21e1a8894ec,6737680fcfadee3c453c0aff,2024-11-15_16h27.22.365,Tarea de género gramatical,2024.2.2,MacIntel,109.8901099,,,,,,,,,,,,,,,,,,,,,,,,297.0955,298.1321,l,1,[],[],[],[],[],[],[],0.3784,1,298.1322,298.6327,,,,,,1244,FEM,AGR,150,pareja,la,a,0.3784,,298.6328,298.633,-0.038562335,-0.410119048,0,0,0,,0,66,66,343,1,,,,
,,,,,,d872a2c0dcf0a498b5e42410,66a626ef09d4e21e1a8894ec,6737680fcfadee3c453c0aff,2024-11-15_16h27.22.365,Tarea de género gramatical,2024.2.2,MacIntel,109.8901099,,,,,,,,,,,,,,,,,,,,,,,,298.6349,299.5823,a,1,[],[],[],[],[],[],[],0.285,1,299.5824,300.0815,,,,,,1342,MAS,DIS,150,cuadro,la,l,0.285,,300.0816,300.0817,-0.038562335,-0.410119048,0,0,0,,0,67,67,441,1,,,,
,,,,,,d872a2c0dcf0a498b5e42410,66a626ef09d4e21e1a8894ec,6737680fcfadee3c453c0aff,2024-11-15_16h27.22.365,Tarea de género gramatical,2024.2.2,MacIntel,109.8901099,,,,,,,,,,,,,,,,,,,,,,,,300.0837,301.0319,l,1,[],[],[],[],[],[],[],0.2913,1,301.0321,301.5325,,,,,,1280,FEM,AGR,150,madera,la,a,0.2913,,301.5327,301.5329,-0.038562335,-0.410119048,0,0,0,,0,68,68,379,1,,,,
,,,,,,d872a2c0dcf0a498b5e42410,66a626ef09d4e21e1a8894ec,6737680fcfadee3c453c0aff,2024-11-15_16h27.22.365,Tarea de género gramatical,2024.2.2,MacIntel,109.8901099,,,,,,,,,,,,,,,,,,,,,,,,301.5348,302.5748,a,1,[],[],[],[],[],[],[],0.3789,1,302.5749,303.0743,,,,,,1072,MAS,DIS,150,poder,la,l,0.3789,,303.0763,303.0773,-0.038562335,-0.410119048,0,0,0,,0,69,69,171,1,,,,
,,,,,,d872a2c0dcf0a498b5e42410,66a626ef09d4e21e1a8894ec,6737680fcfadee3c453c0aff,2024-11-15_16h27.22.365,Tarea de género gramatical,2024.2.2,MacIntel,109.8901099,,,,,,,,,,,,,,,,,,,,,,,,303.0785,304.0487,a,1,[],[],[],[],[],[],[],0.3119,1,304.0488,304.5492,,,,,,1229,MAS,AGR,150,futuro,el,l,0.3119,,304.5494,304.5495,-0.038562335,-0.410119048,0,0,0,,0,70,70,328,1,,,,
,,,,,,d872a2c0dcf0a498b5e42410,66a626ef09d4e21e1a8894ec,6737680fcfadee3c453c0aff,2024-11-15_16h27.22.365,Tarea de género gramatical,2024.2.2,MacIntel,109.8901099,,,,,,,,,,,,,,,,,,,,,,,,304.5518,305.5072,l,1,[],[],[],[],[],[],[],0.2938,1,305.5074,306.0068,,,,,,1124,FEM,AGR,150,arena,la,a,0.2938,,306.007,306.0073,-0.038562335,-0.410119048,0,0,0,,0,71,71,223,1,,,,
,,,,,,d872a2c0dcf0a498b5e42410,66a626ef09d4e21e1a8894ec,6737680fcfadee3c453c0aff,2024-11-15_16h27.22.365,Tarea de género gramatical,2024.2.2,MacIntel,109.8901099,,,,,,,,,,,,,,,,,,,,,,,,306.0086,307.1656,a,1,[],[],[],[],[],[],[],0.4942,1,307.1657,307.6651,,,,,,1228,MAS,DIS,150,asunto,la,l,0.4942,,307.6652,307.6653,-0.038562335,-0.410119048,0,0,0,,0,72,72,327,1,,,,
,,,,,,d872a2c0dcf0a498b5e42410,66a626ef09d4e21e1a8894ec,6737680fcfadee3c453c0aff,2024-11-15_16h27.22.365,Tarea de género gramatical,2024.2.2,MacIntel,109.8901099,,,,,,,,,,,,,,,,,,,,,,,,307.6671,308.7322,a,1,[],[],[],[],[],[],[],0.4016,1,308.7324,309.2327,,,,,,1132,MAS,DIS,150,calor,la,l,0.4016,,309.2328,309.2329,-0.038562335,-0.410119048,0,0,0,,0,73,73,231,1,,,,
,,,,,,d872a2c0dcf0a498b5e42410,66a626ef09d4e21e1a8894ec,6737680fcfadee3c453c0aff,2024-11-15_16h27.22.365,Tarea de género gramatical,2024.2.2,MacIntel,109.8901099,,,,,,,,,,,,,,,,,,,,,,,,309.2347,310.3397,a,1,[],[],[],[],[],[],[],0.4414,1,310.3399,310.8408,,,,,,1230,MAS,CON,150,estado,,l,0.4414,,310.8431,310.8441,-0.038562335,-0.410119048,0,0,0,,0,74,74,329,1,,,,
,,,,,,d872a2c0dcf0a498b5e42410,66a626ef09d4e21e1a8894ec,6737680fcfadee3c453c0aff,2024-11-15_16h27.22.365,Tarea de género gramatical,2024.2.2,MacIntel,109.8901099,,,,,,,,,,,,,,,,,,,,,,,,310.8447,311.8397,a,1,[],[],[],[],[],[],[],0.3344,1,311.8399,312.3409,,,,,,971,MAS,AGR,150,pozo,el,l,0.3344,,312.3411,312.3414,-0.038562335,-0.410119048,0,0,0,,0,75,75,70,1,,,,
,,,,,,d872a2c0dcf0a498b5e42410,66a626ef09d4e21e1a8894ec,6737680fcfadee3c453c0aff,2024-11-15_16h27.22.365,Tarea de género gramatical,2024.2.2,MacIntel,109.8901099,,,,,,,,,,,,,,,,,,,,,,,,312.3441,313.2569,a,1,[],[],[],[],[],[],[],0.2507,1,313.2571,313.7573,,,,,,922,MAS,DIS,150,pelo,la,l,0.2507,,313.7574,313.7575,-0.038562335,-0.410119048,0,0,0,,0,76,76,21,1,,,,
,,,,,,d872a2c0dcf0a498b5e42410,66a626ef09d4e21e1a8894ec,6737680fcfadee3c453c0aff,2024-11-15_16h27.22.365,Tarea de género gramatical,2024.2.2,MacIntel,109.8901099,,,,,,,,,,,,,,,,,,,,,,,,313.7594,314.7416,l,1,[],[],[],[],[],[],[],0.3207,1,314.7417,315.2403,,,,,,1257,FEM,CON,150,lengua,,a,0.3207,,315.2404,315.2405,-0.038562335,-0.410119048,0,0,0,,0,77,77,356,1,,,,
,,,,,,d872a2c0dcf0a498b5e42410,66a626ef09d4e21e1a8894ec,6737680fcfadee3c453c0aff,2024-11-15_16h27.22.365,Tarea de género gramatical,2024.2.2,MacIntel,109.8901099,,,,,,,,,,,,,,,,,,,,,,,,315.2419,316.2155,l,1,[],[],[],[],[],[],[],0.3103,1,316.2155,316.7156,,,,,,1317,FEM,CON,150,cabaña,,a,0.3103,,316.7172,316.7184,-0.038562335,-0.410119048,0,0,0,,0,78,78,416,1,,,,
,,,,,,d872a2c0dcf0a498b5e42410,66a626ef09d4e21e1a8894ec,6737680fcfadee3c453c0aff,2024-11-15_16h27.22.365,Tarea de género gramatical,2024.2.2,MacIntel,109.8901099,,,,,,,,,,,,,,,,,,,,,,,,316.7196,317.6735,a,1,[],[],[],[],[],[],[],0.2911,1,317.6737,318.1739,,,,,,1337,MAS,AGR,150,hombro,el,l,0.2911,,318.1739,318.1742,-0.038562335,-0.410119048,0,0,0,,0,79,79,436,1,,,,
,,,,,,d872a2c0dcf0a498b5e42410,66a626ef09d4e21e1a8894ec,6737680fcfadee3c453c0aff,2024-11-15_16h27.22.365,Tarea de género gramatical,2024.2.2,MacIntel,109.8901099,,,,,,,,,,,,,,,,,,,,,,,,318.1752,319.2734,a,1,[],[],[],[],[],[],[],0.4369,1,319.2734,319.7739,,,,,,1116,MAS,CON,150,éxito,,l,0.4369,,319.7741,319.7743,-0.038562335,-0.410119048,0,0,0,,0,80,80,215,1,,,,
,,,,,,d872a2c0dcf0a498b5e42410,66a626ef09d4e21e1a8894ec,6737680fcfadee3c453c0aff,2024-11-15_16h27.22.365,Tarea de género gramatical,2024.2.2,MacIntel,109.8901099,,,,,,,,,,,,,,,,,,,,,,,,319.7761,320.766,a,1,[],[],[],[],[],[],[],0.3261,1,320.7663,321.2654,,,,,,995,MAS,AGR,150,tomo,el,l,0.3261,,321.2655,321.2657,-0.038562335,-0.410119048,0,0,0,,0,81,81,94,1,,,,
,,,,,,d872a2c0dcf0a498b5e42410,66a626ef09d4e21e1a8894ec,6737680fcfadee3c453c0aff,2024-11-15_16h27.22.365,Tarea de género gramatical,2024.2.2,MacIntel,109.8901099,,,,,,,,,,,,,,,,,,,,,,,,321.267,322.3148,a,0,[],[],[],[],[],[],[],0.3868,0,322.3154,322.815,,,,,,1155,FEM,CON,150,tribu,,a,0.3868,,322.8152,322.8153,-0.038562335,-0.410119048,0,0,0,,0,82,82,254,1,,,,
,,,,,,d872a2c0dcf0a498b5e42410,66a626ef09d4e21e1a8894ec,6737680fcfadee3c453c0aff,2024-11-15_16h27.22.365,Tarea de género gramatical,2024.2.2,MacIntel,109.8901099,,,,,,,,,,,,,,,,,,,,,,,,322.8174,323.7902,l,1,[],[],[],[],[],[],[],0.3096,1,323.791,324.2904,,,,,,1064,FEM,AGR,150,novia,la,a,0.3096,,324.2918,324.2927,-0.038562335,-0.410119048,0,0,0,,0,83,83,163,1,,,,
,,,,,,d872a2c0dcf0a498b5e42410,66a626ef09d4e21e1a8894ec,6737680fcfadee3c453c0aff,2024-11-15_16h27.22.365,Tarea de género gramatical,2024.2.2,MacIntel,109.8901099,,,,,,,,,,,,,,,,,,,,,,,,324.2942,325.2405,a,1,[],[],[],[],[],[],[],0.2838,1,325.2406,325.7407,,,,,,1056,MAS,CON,150,amigo,,l,0.2838,,325.7408,325.741,-0.038562335,-0.410119048,0,0,0,,0,84,84,155,1,,,,
,,,,,,d872a2c0dcf0a498b5e42410,66a626ef09d4e21e1a8894ec,6737680fcfadee3c453c0aff,2024-11-15_16h27.22.365,Tarea de género gramatical,2024.2.2,MacIntel,109.8901099,,,,,,,,,,,,,,,,,,,,,,,,325.7428,326.6989,a,1,[],[],[],[],[],[],[],0.2918,1,326.699,327.1989,,,,,,1061,MAS,AGR,150,chico,el,l,0.2918,,327.1991,327.1991,-0.038562335,-0.410119048,0,0,0,,0,85,85,160,1,,,,
,,,,,,d872a2c0dcf0a498b5e42410,66a626ef09d4e21e1a8894ec,6737680fcfadee3c453c0aff,2024-11-15_16h27.22.365,Tarea de género gramatical,2024.2.2,MacIntel,109.8901099,,,,,,,,,,,,,,,,,,,,,,,,327.2005,328.282,l,1,[],[],[],[],[],[],[],0.4174,1,328.2821,328.7826,,,,,,1243,FEM,DIS,150,trampa,el,a,0.4174,,328.7827,328.7829,-0.038562335,-0.410119048,0,0,0,,0,86,86,342,1,,,,
,,,,,,d872a2c0dcf0a498b5e42410,66a626ef09d4e21e1a8894ec,6737680fcfadee3c453c0aff,2024-11-15_16h27.22.365,Tarea de género gramatical,2024.2.2,MacIntel,109.8901099,,,,,,,,,,,,,,,,,,,,,,,,328.7847,329.7822,l,1,[],[],[],[],[],[],[],0.3348,1,329.7822,330.2823,,,,,,1273,FEM,DIS,150,lluvia,el,a,0.3348,,330.2834,330.2842,-0.038562335,-0.410119048,0,0,0,,0,87,87,372,1,,,,
,,,,,,d872a2c0dcf0a498b5e42410,66a626ef09d4e21e1a8894ec,6737680fcfadee3c453c0aff,2024-11-15_16h27.22.365,Tarea de género gramatical,2024.2.2,MacIntel,109.8901099,,,,,,,,,,,,,,,,,,,,,,,,330.2851,331.3738,a,1,[],[],[],[],[],[],[],0.4259,1,331.374,331.874,,,,,,1198,MAS,DIS,150,botón,la,l,0.4259,,331.8741,331.8743,-0.038562335,-0.410119048,0,0,0,,0,88,88,297,1,,,,
,,,,,,d872a2c0dcf0a498b5e42410,66a626ef09d4e21e1a8894ec,6737680fcfadee3c453c0aff,2024-11-15_16h27.22.365,Tarea de género gramatical,2024.2.2,MacIntel,109.8901099,,,,,,,,,,,,,,,,,,,,,,,,331.8765,332.882,l,1,[],[],[],[],[],[],[],0.3424,1,332.8822,333.3819,,,,,,1033,FEM,DIS,150,joya,el,a,0.3424,,333.3819,333.3819,-0.038562335,-0.410119048,0,0,0,,0,89,89,132,1,,,,
,,,,,,d872a2c0dcf0a498b5e42410,66a626ef09d4e21e1a8894ec,6737680fcfadee3c453c0aff,2024-11-15_16h27.22.365,Tarea de género gramatical,2024.2.2,MacIntel,109.8901099,,,,,,,,,,,,,,,,,,,,,,,,333.3824,334.3652,l,1,[],[],[],[],[],[],[],0.313,1,334.3652,334.8654,,,,,,1153,FEM,DIS,150,aldea,el,a,0.313,,334.8656,334.8657,-0.038562335,-0.410119048,0,0,0,,0,90,90,252,1,,,,
,,,,,,d872a2c0dcf0a498b5e42410,66a626ef09d4e21e1a8894ec,6737680fcfadee3c453c0aff,2024-11-15_16h27.22.365,Tarea de género gramatical,2024.2.2,MacIntel,109.8901099,,,,,,,,,,,,,,,,,,,,,,,,334.8674,335.8487,l,1,[],[],[],[],[],[],[],0.3209,1,335.8488,336.3483,,,,,,1023,FEM,CON,150,tela,,a,0.3209,,336.3485,336.3487,-0.038562335,-0.410119048,0,0,0,,0,91,91,122,1,,,,
,,,,,,d872a2c0dcf0a498b5e42410,66a626ef09d4e21e1a8894ec,6737680fcfadee3c453c0aff,2024-11-15_16h27.22.365,Tarea de género gramatical,2024.2.2,MacIntel,109.8901099,,,,,,,,,,,,,,,,,,,,,,,,336.35,337.4321,a,1,[],[],[],[],[],[],[],0.4195,1,337.4321,337.9325,,,,,,1013,MAS,AGR,150,toro,el,l,0.4195,,337.9345,337.9358,-0.038562335,-0.410119048,0,0,0,,0,92,92,112,1,,,,
,,,,,,d872a2c0dcf0a498b5e42410,66a626ef09d4e21e1a8894ec,6737680fcfadee3c453c0aff,2024-11-15_16h27.22.365,Tarea de género gramatical,2024.2.2,MacIntel,109.8901099,,,,,,,,,,,,,,,,,,,,,,,,337.9365,338.9407,l,1,[],[],[],[],[],[],[],0.3415,1,338.9408,339.4403,,,,,,1305,FEM,CON,150,parada,,a,0.3415,,339.4403,339.4404,-0.038562335,-0.410119048,0,0,0,,0,93,93,404,1,,,,
,,,,,,d872a2c0dcf0a498b5e42410,66a626ef09d4e21e1a8894ec,6737680fcfadee3c453c0aff,2024-11-15_16h27.22.365,Tarea de género gramatical,2024.2.2,MacIntel,109.8901099,,,,,,,,,,,,,,,,,,,,,,,,339.4412,340.5236,a,1,[],[],[],[],[],[],[],0.4168,1,340.5237,341.0241,,,,,,1212,MAS,CON,150,equipo,,l,0.4168,,341.0242,341.0245,-0.038562335,-0.410119048,0,0,0,,0,94,94,311,1,,,,
,,,,,,d872a2c0dcf0a498b5e42410,66a626ef09d4e21e1a8894ec,6737680fcfadee3c453c0aff,2024-11-15_16h27.22.365,Tarea de género gramatical,2024.2.2,MacIntel,109.8901099,,,,,,,,,,,,,,,,,,,,,,,,341.0266,341.9989,l,1,[],[],[],[],[],[],[],0.3078,1,341.999,342.4992,,,,,,1046,FEM,AGR,150,lana,la,a,0.3078,,342.4993,342.4995,-0.038562335,-0.410119048,0,0,0,,0,95,95,145,1,,,,
,,,,,,d872a2c0dcf0a498b5e42410,66a626ef09d4e21e1a8894ec,6737680fcfadee3c453c0aff,2024-11-15_16h27.22.365,Tarea de género gramatical,2024.2.2,MacIntel,109.8901099,,,,,,,,,,,,,,,,,,,,,,,,342.5016,343.5651,l,1,[],[],[],[],[],[],[],0.4016,1,343.5653,344.0656,,,,,,1339,FEM,DIS,150,toalla,el,a,0.4016,,344.0671,344.0684,-0.038562335,-0.410119048,0,0,0,,0,96,96,438,1,,,,
,,,,,,d872a2c0dcf0a498b5e42410,66a626ef09d4e21e1a8894ec,6737680fcfadee3c453c0aff,2024-11-15_16h27.22.365,Tarea de género gramatical,2024.2.2,MacIntel,109.8901099,,,,,,,,,,,,,,,,,,,,,,,,344.0695,345.0247,l,1,[],[],[],[],[],[],[],0.2967,1,345.0248,345.5242,,,,,,1053,FEM,CON,150,mujer,,a,0.2967,,345.5243,345.5245,-0.038562335,-0.410119048,0,0,0,,0,97,97,152,1,,,,
,,,,,,d872a2c0dcf0a498b5e42410,66a626ef09d4e21e1a8894ec,6737680fcfadee3c453c0aff,2024-11-15_16h27.22.365,Tarea de género gramatical,2024.2.2,MacIntel,109.8901099,,,,,,,,,,,,,,,,,,,,,,,,345.5264,346.5228,l,1,[],[],[],[],[],[],[],0.3348,1,346.5229,347.0238,,,,,,1184,FEM,AGR,150,fruta,la,a,0.3348,,347.0239,347.024,-0.038562335,-0.410119048,0,0,0,,0,98,98,283,1,,,,
,,,,,,d872a2c0dcf0a498b5e42410,66a626ef09d4e21e1a8894ec,6737680fcfadee3c453c0aff,2024-11-15_16h27.22.365,Tarea de género gramatical,2024.2.2,MacIntel,109.8901099,,,,,,,,,,,,,,,,,,,,,,,,347.0255,348.0404,a,1,[],[],[],[],[],[],[],0.3498,1,348.0404,348.5407,,,,,,1206,MAS,CON,150,dinero,,l,0.3498,,348.5409,348.541,-0.038562335,-0.410119048,0,0,0,,0,99,99,305,1,,,,
,,,,,,d872a2c0dcf0a498b5e42410,66a626ef09d4e21e1a8894ec,6737680fcfadee3c453c0aff,2024-11-15_16h27.22.365,Tarea de género gramatical,2024.2.2,MacIntel,109.8901099,,,,,,,,,,,,,,,,,,,,,,,,348.5428,349.7069,a,1,[],[],[],[],[],[],[],0.4985,1,349.7071,350.2076,,,,,,1290,MAS,CON,150,rostro,,l,0.4985,,350.2077,350.208,-0.038562335,-0.410119048,0,0,0,,0,100,100,389,1,,,,
,,,,,,d872a2c0dcf0a498b5e42410,66a626ef09d4e21e1a8894ec,6737680fcfadee3c453c0aff,2024-11-15_16h27.22.365,Tarea de género gramatical,2024.2.2,MacIntel,109.8901099,,,,,,,,,,,,,,,,,,,,,,,,350.2104,351.1081,l,1,[],[],[],[],[],[],[],0.2374,1,351.1082,351.6074,,,,,,1203,FEM,CON,150,maldad,,a,0.2374,,351.609,351.6103,-0.038562335,-0.410119048,0,0,0,,0,101,101,302,1,,,,
,,,,,,d872a2c0dcf0a498b5e42410,66a626ef09d4e21e1a8894ec,6737680fcfadee3c453c0aff,2024-11-15_16h27.22.365,Tarea de género gramatical,2024.2.2,MacIntel,109.8901099,,,,,,,,,,,,,,,,,,,,,,,,351.6112,352.6237,a,1,[],[],[],[],[],[],[],0.35,1,352.624,353.1238,,,,,,1324,MAS,DIS,150,rastro,la,l,0.35,,353.1239,353.124,-0.038562335,-0.410119048,0,0,0,,0,102,102,423,1,,,,
,,,,,,d872a2c0dcf0a498b5e42410,66a626ef09d4e21e1a8894ec,6737680fcfadee3c453c0aff,2024-11-15_16h27.22.365,Tarea de género gramatical,2024.2.2,MacIntel,109.8901099,,,,,,,,,,,,,,,,,,,,,,,,353.1254,354.0234,l,1,[],[],[],[],[],[],[],0.2357,1,354.0236,354.5248,,,,,,938,FEM,AGR,150,obra,la,a,0.2357,,354.5249,354.525,-0.038562335,-0.410119048,0,0,0,,0,103,103,37,1,,,,
,,,,,,d872a2c0dcf0a498b5e42410,66a626ef09d4e21e1a8894ec,6737680fcfadee3c453c0aff,2024-11-15_16h27.22.365,Tarea de género gramatical,2024.2.2,MacIntel,109.8901099,,,,,,,,,,,,,,,,,,,,,,,,354.5259,355.5154,l,1,[],[],[],[],[],[],[],0.3265,1,355.5156,356.0157,,,,,,1112,FEM,AGR,150,cinta,la,a,0.3265,,356.0158,356.0161,-0.038562335,-0.410119048,0,0,0,,0,104,104,211,1,,,,
,,,,,,d872a2c0dcf0a498b5e42410,66a626ef09d4e21e1a8894ec,6737680fcfadee3c453c0aff,2024-11-15_16h27.22.365,Tarea de género gramatical,2024.2.2,MacIntel,109.8901099,,,,,,,,,,,,,,,,,,,,,,,,356.0177,356.9654,a,1,[],[],[],[],[],[],[],0.2816,1,356.9656,357.4659,,,,,,1205,MAS,AGR,150,hombre,el,l,0.2816,,357.4681,357.4697,-0.038562335,-0.410119048,0,0,0,,0,105,105,304,1,,,,
,,,,,,d872a2c0dcf0a498b5e42410,66a626ef09d4e21e1a8894ec,6737680fcfadee3c453c0aff,2024-11-15_16h27.22.365,Tarea de género gramatical,2024.2.2,MacIntel,109.8901099,,,,,,,,,,,,,,,,,,,,,,,,357.4706,358.4236,a,1,[],[],[],[],[],[],[],0.2944,1,358.4237,358.9227,,,,,,1193,MAS,AGR,150,patio,el,l,0.2944,,358.9229,358.923,-0.038562335,-0.410119048,0,0,0,,0,106,106,292,1,,,,
,,,,,,d872a2c0dcf0a498b5e42410,66a626ef09d4e21e1a8894ec,6737680fcfadee3c453c0aff,2024-11-15_16h27.22.365,Tarea de género gramatical,2024.2.2,MacIntel,109.8901099,,,,,,,,,,,,,,,,,,,,,,,,358.9248,359.9153,a,1,[],[],[],[],[],[],[],0.326,1,359.9154,360.4155,,,,,,904,MAS,DIS,150,hijo,la,l,0.326,,360.4157,360.4158,-0.038562335,-0.410119048,0,0,0,,0,107,107,3,1,,,,
,,,,,,d872a2c0dcf0a498b5e42410,66a626ef09d4e21e1a8894ec,6737680fcfadee3c453c0aff,2024-11-15_16h27.22.365,Tarea de género gramatical,2024.2.2,MacIntel,109.8901099,,,,,,,,,,,,,,,,,,,,,,,,360.417,361.4653,a,1,[],[],[],[],[],[],[],0.3854,1,361.4655,361.966,,,,,,1296,MAS,CON,150,tesoro,,l,0.3854,,361.9661,361.9663,-0.038562335,-0.410119048,0,0,0,,0,108,108,395,1,,,,
,,,,,,d872a2c0dcf0a498b5e42410,66a626ef09d4e21e1a8894ec,6737680fcfadee3c453c0aff,2024-11-15_16h27.22.365,Tarea de género gramatical,2024.2.2,MacIntel,109.8901099,,,,,,,,,,,,,,,,,,,,,,,,361.9678,362.9145,l,1,[],[],[],[],[],[],[],0.2826,1,362.9146,363.4146,,,,,,1039,FEM,DIS,150,pipa,el,a,0.2826,,363.4148,363.4149,-0.038562335,-0.410119048,0,0,0,,0,109,109,138,1,,,,
,,,,,,d872a2c0dcf0a498b5e42410,66a626ef09d4e21e1a8894ec,6737680fcfadee3c453c0aff,2024-11-15_16h27.22.365,Tarea de género gramatical,2024.2.2,MacIntel,109.8901099,,,,,,,,,,,,,,,,,,,,,,,,363.4169,364.3985,l,1,[],[],[],[],[],[],[],0.3185,1,364.3986,364.8986,,,,,,980,FEM,AGR,150,vaca,la,a,0.3185,,364.9004,364.9015,-0.038562335,-0.410119048,0,0,0,,0,110,110,79,1,,,,
,,,,,,d872a2c0dcf0a498b5e42410,66a626ef09d4e21e1a8894ec,6737680fcfadee3c453c0aff,2024-11-15_16h27.22.365,Tarea de género gramatical,2024.2.2,MacIntel,109.8901099,,,,,,,,,,,,,,,,,,,,,,,,364.9022,365.7819,a,1,[],[],[],[],[],[],[],0.2197,1,365.782,366.2822,,,,,,1336,MAS,DIS,150,objeto,la,l,0.2197,,366.2823,366.2824,-0.038562335,-0.410119048,0,0,0,,0,111,111,435,1,,,,
,,,,,,d872a2c0dcf0a498b5e42410,66a626ef09d4e21e1a8894ec,6737680fcfadee3c453c0aff,2024-11-15_16h27.22.365,Tarea de género gramatical,2024.2.2,MacIntel,109.8901099,,,,,,,,,,,,,,,,,,,,,,,,366.2838,367.232,l,1,[],[],[],[],[],[],[],0.2854,1,367.2321,367.7323,,,,,,1077,FEM,CON,150,broma,,a,0.2854,,367.7324,367.7326,-0.038562335,-0.410119048,0,0,0,,0,112,112,176,1,,,,
,,,,,,d872a2c0dcf0a498b5e42410,66a626ef09d4e21e1a8894ec,6737680fcfadee3c453c0aff,2024-11-15_16h27.22.365,Tarea de género gramatical,2024.2.2,MacIntel,109.8901099,,,,,,,,,,,,,,,,,,,,,,,,367.7349,368.6145,a,1,[],[],[],[],[],[],[],0.2201,1,368.6147,369.1156,,,,,,1169,MAS,AGR,150,primo,el,l,0.2201,,369.1159,369.1161,-0.038562335,-0.410119048,0,0,0,,0,113,113,268,1,,,,
,,,,,,d872a2c0dcf0a498b5e42410,66a626ef09d4e21e1a8894ec,6737680fcfadee3c453c0aff,2024-11-15_16h27.22.365,Tarea de género gramatical,2024.2.2,MacIntel,109.8901099,,,,,,,,,,,,,,,,,,,,,,,,369.1178,370.0736,a,1,[],[],[],[],[],[],[],0.2927,1,370.0737,370.5728,,,,,,929,MAS,AGR,150,frío,el,l,0.2927,,370.5747,370.576,-0.038562335,-0.410119048,0,0,0,,0,114,114,28,1,,,,
,,,,,,d872a2c0dcf0a498b5e42410,66a626ef09d4e21e1a8894ec,6737680fcfadee3c453c0aff,2024-11-15_16h27.22.365,Tarea de género gramatical,2024.2.2,MacIntel,109.8901099,,,,,,,,,,,,,,,,,,,,,,,,370.5769,371.5476,a,1,[],[],[],[],[],[],[],0.3102,1,371.5477,372.0486,,,,,,1008,MAS,CON,150,hilo,,l,0.3102,,372.0488,372.0488,-0.038562335,-0.410119048,0,0,0,,0,115,115,107,1,,,,
,,,,,,d872a2c0dcf0a498b5e42410,66a626ef09d4e21e1a8894ec,6737680fcfadee3c453c0aff,2024-11-15_16h27.22.365,Tarea de género gramatical,2024.2.2,MacIntel,109.8901099,,,,,,,,,,,,,,,,,,,,,,,,372.0498,372.9569,a,1,[],[],[],[],[],[],[],0.2406,1,372.957,373.4572,,,,,,1162,MAS,DIS,150,video,la,l,0.2406,,373.4573,373.4575,-0.038562335,-0.410119048,0,0,0,,0,116,116,261,1,,,,
,,,,,,d872a2c0dcf0a498b5e42410,66a626ef09d4e21e1a8894ec,6737680fcfadee3c453c0aff,2024-11-15_16h27.22.365,Tarea de género gramatical,2024.2.2,MacIntel,109.8901099,,,,,,,,,,,,,,,,,,,,,,,,373.4594,374.4399,a,1,[],[],[],[],[],[],[],0.3185,1,374.44,374.9403,,,,,,1091,MAS,AGR,150,dolor,el,l,0.3185,,374.9404,374.9405,-0.038562335,-0.410119048,0,0,0,,0,117,117,190,1,,,,
,,,,,,d872a2c0dcf0a498b5e42410,66a626ef09d4e21e1a8894ec,6737680fcfadee3c453c0aff,2024-11-15_16h27.22.365,Tarea de género gramatical,2024.2.2,MacIntel,109.8901099,,,,,,,,,,,,,,,,,,,,,,,,374.9418,375.9402,a,0,[],[],[],[],[],[],[],0.3352,0,375.9412,376.4404,,,,,,1076,FEM,AGR,150,línea,la,a,0.3352,,376.4405,376.4406,-0.038562335,-0.410119048,0,0,0,,0,118,118,175,1,,,,
,,,,,,d872a2c0dcf0a498b5e42410,66a626ef09d4e21e1a8894ec,6737680fcfadee3c453c0aff,2024-11-15_16h27.22.365,Tarea de género gramatical,2024.2.2,MacIntel,109.8901099,,,,,,,,,,,,,,,,,,,,,,,,376.442,377.3485,a,1,[],[],[],[],[],[],[],0.2435,1,377.3493,377.849,,,,,,1042,MAS,DIS,150,lodo,la,l,0.2435,,377.8507,377.8516,-0.038562335,-0.410119048,0,0,0,,0,119,119,141,1,,,,
,,,,,,d872a2c0dcf0a498b5e42410,66a626ef09d4e21e1a8894ec,6737680fcfadee3c453c0aff,2024-11-15_16h27.22.365,Tarea de género gramatical,2024.2.2,MacIntel,109.8901099,,,,,,,,,,,,,,,,,,,,,,,,377.8523,378.7647,l,1,[],[],[],[],[],[],[],0.2506,1,378.7648,379.2652,,,,,,975,FEM,CON,150,caza,,a,0.2506,,379.2654,379.2656,-0.038562335,-0.410119048,0,0,0,,0,120,120,74,1,,,,
,,,,,,d872a2c0dcf0a498b5e42410,66a626ef09d4e21e1a8894ec,6737680fcfadee3c453c0aff,2024-11-15_16h27.22.365,Tarea de género gramatical,2024.2.2,MacIntel,109.8901099,,,,,,,,,,,,,,,,,,,,,,,,379.267,380.2652,a,1,[],[],[],[],[],[],[],0.3328,1,380.2653,380.7653,,,,,,964,MAS,DIS,150,saco,la,l,0.3328,,380.7654,380.7656,-0.038562335,-0.410119048,0,0,0,,0,121,121,63,1,,,,
,,,,,,d872a2c0dcf0a498b5e42410,66a626ef09d4e21e1a8894ec,6737680fcfadee3c453c0aff,2024-11-15_16h27.22.365,Tarea de género gramatical,2024.2.2,MacIntel,109.8901099,,,,,,,,,,,,,,,,,,,,,,,,380.7669,381.7651,a,1,[],[],[],[],[],[],[],0.3348,1,381.7653,382.2647,,,,,,1036,MAS,DIS,150,vago,la,l,0.3348,,382.2648,382.2651,-0.038562335,-0.410119048,0,0,0,,0,122,122,135,1,,,,
,,,,,,d872a2c0dcf0a498b5e42410,66a626ef09d4e21e1a8894ec,6737680fcfadee3c453c0aff,2024-11-15_16h27.22.365,Tarea de género gramatical,2024.2.2,MacIntel,109.8901099,,,,,,,,,,,,,,,,,,,,,,,,382.2668,383.2646,l,0,[],[],[],[],[],[],[],0.3308,0,383.2661,383.7655,,,,,,1194,MAS,CON,150,cable,,l,0.3308,,383.767,383.7683,-0.038562335,-0.410119048,0,0,0,,0,123,123,293,1,,,,
,,,,,,d872a2c0dcf0a498b5e42410,66a626ef09d4e21e1a8894ec,6737680fcfadee3c453c0aff,2024-11-15_16h27.22.365,Tarea de género gramatical,2024.2.2,MacIntel,109.8901099,,,,,,,,,,,,,,,,,,,,,,,,383.7693,384.7569,a,1,[],[],[],[],[],[],[],0.3263,1,384.7578,385.2573,,,,,,1067,MAS,AGR,150,juego,el,l,0.3263,,385.2574,385.2576,-0.038562335,-0.410119048,0,0,0,,0,124,124,166,1,,,,
,,,,,,d872a2c0dcf0a498b5e42410,66a626ef09d4e21e1a8894ec,6737680fcfadee3c453c0aff,2024-11-15_16h27.22.365,Tarea de género gramatical,2024.2.2,MacIntel,109.8901099,,,,,,,,,,,,,,,,,,,,,,,,385.2598,386.3319,l,1,[],[],[],[],[],[],[],0.4106,1,386.332,386.8316,,,,,,945,FEM,CON,150,isla,,a,0.4106,,386.8318,386.832,-0.038562335,-0.410119048,0,0,0,,0,125,125,44,1,,,,
,,,,,,d872a2c0dcf0a498b5e42410,66a626ef09d4e21e1a8894ec,6737680fcfadee3c453c0aff,2024-11-15_16h27.22.365,Tarea de género gramatical,2024.2.2,MacIntel,109.8901099,,,,,,,,,,,,,,,,,,,,,,,,386.8333,387.8063,a,1,[],[],[],[],[],[],[],0.3056,1,387.8065,388.3066,,,,,,1176,MAS,CON,150,ritmo,,l,0.3056,,388.3067,388.3069,-0.038562335,-0.410119048,0,0,0,,0,126,126,275,1,,,,
,,,,,,d872a2c0dcf0a498b5e42410,66a626ef09d4e21e1a8894ec,6737680fcfadee3c453c0aff,2024-11-15_16h27.22.365,Tarea de género gramatical,2024.2.2,MacIntel,109.8901099,,,,,,,,,,,,,,,,,,,,,,,,388.309,389.2818,a,1,[],[],[],[],[],[],[],0.3117,1,389.2818,389.7821,,,,,,1182,MAS,CON,150,bolso,,l,0.3117,,389.7821,389.7823,-0.038562335,-0.410119048,0,0,0,,0,127,127,281,1,,,,
,,,,,,d872a2c0dcf0a498b5e42410,66a626ef09d4e21e1a8894ec,6737680fcfadee3c453c0aff,2024-11-15_16h27.22.365,Tarea de género gramatical,2024.2.2,MacIntel,109.8901099,,,,,,,,,,,,,,,,,,,,,,,,389.7836,390.7067,a,1,[],[],[],[],[],[],[],0.2592,1,390.7069,391.2073,,,,,,1283,MAS,AGR,150,parque,el,l,0.2592,,391.2092,391.211,-0.038562335,-0.410119048,0,0,0,,0,128,128,382,1,,,,
,,,,,,d872a2c0dcf0a498b5e42410,66a626ef09d4e21e1a8894ec,6737680fcfadee3c453c0aff,2024-11-15_16h27.22.365,Tarea de género gramatical,2024.2.2,MacIntel,109.8901099,,,,,,,,,,,,,,,,,,,,,,,,391.2123,392.3317,l,1,[],[],[],[],[],[],[],0.4591,1,392.3318,392.8323,,,,,,1219,FEM,DIS,150,sangre,el,a,0.4591,,392.8324,392.8327,-0.038562335,-0.410119048,0,0,0,,0,129,129,318,1,,,,
,,,,,,d872a2c0dcf0a498b5e42410,66a626ef09d4e21e1a8894ec,6737680fcfadee3c453c0aff,2024-11-15_16h27.22.365,Tarea de género gramatical,2024.2.2,MacIntel,109.8901099,,,,,,,,,,,,,,,,,,,,,,,,392.8337,393.9152,l,1,[],[],[],[],[],[],[],0.4176,1,393.9153,394.4156,,,,,,944,FEM,AGR,150,zona,la,a,0.4176,,394.4157,394.4159,-0.038562335,-0.410119048,0,0,0,,0,130,130,43,1,,,,
,,,,,,d872a2c0dcf0a498b5e42410,66a626ef09d4e21e1a8894ec,6737680fcfadee3c453c0aff,2024-11-15_16h27.22.365,Tarea de género gramatical,2024.2.2,MacIntel,109.8901099,,,,,,,,,,,,,,,,,,,,,,,,394.4173,395.383,l,1,[],[],[],[],[],[],[],0.3045,1,395.383,395.8823,,,,,,1058,FEM,AGR,150,chica,la,a,0.3045,,395.8824,395.8826,-0.038562335,-0.410119048,0,0,0,,0,131,131,157,1,,,,
,,,,,,d872a2c0dcf0a498b5e42410,66a626ef09d4e21e1a8894ec,6737680fcfadee3c453c0aff,2024-11-15_16h27.22.365,Tarea de género gramatical,2024.2.2,MacIntel,109.8901099,,,,,,,,,,,,,,,,,,,,,,,,395.8849,396.8321,l,1,[],[],[],[],[],[],[],0.2836,1,396.8323,397.3325,,,,,,1040,FEM,AGR,150,mula,la,a,0.2836,,397.3343,397.3355,-0.038562335,-0.410119048,0,0,0,,0,132,132,139,1,,,,
,,,,,,d872a2c0dcf0a498b5e42410,66a626ef09d4e21e1a8894ec,6737680fcfadee3c453c0aff,2024-11-15_16h27.22.365,Tarea de género gramatical,2024.2.2,MacIntel,109.8901099,,,,,,,,,,,,,,,,,,,,,,,,397.3365,398.2317,l,1,[],[],[],[],[],[],[],0.2356,1,398.2319,398.7313,,,,,,919,FEM,DIS,150,niña,el,a,0.2356,,398.7315,398.7316,-0.038562335,-0.410119048,0,0,0,,0,133,133,18,1,,,,
,,,,,,d872a2c0dcf0a498b5e42410,66a626ef09d4e21e1a8894ec,6737680fcfadee3c453c0aff,2024-11-15_16h27.22.365,Tarea de género gramatical,2024.2.2,MacIntel,109.8901099,,,,,,,,,,,,,,,,,,,,,,,,398.7329,399.7392,a,1,[],[],[],[],[],[],[],0.342,1,399.7394,400.2404,,,,,,1020,MAS,CON,150,puño,,l,0.342,,400.2405,400.2407,-0.038562335,-0.410119048,0,0,0,,0,134,134,119,1,,,,
,,,,,,d872a2c0dcf0a498b5e42410,66a626ef09d4e21e1a8894ec,6737680fcfadee3c453c0aff,2024-11-15_16h27.22.365,Tarea de género gramatical,2024.2.2,MacIntel,109.8901099,,,,,,,,,,,,,,,,,,,,,,,,400.2428,401.2984,l,1,[],[],[],[],[],[],[],0.3925,1,401.2985,401.7984,,,,,,1255,FEM,DIS,150,mirada,el,a,0.3925,,401.7986,401.7986,-0.038562335,-0.410119048,0,0,0,,0,135,135,354,1,,,,
,,,,,,d872a2c0dcf0a498b5e42410,66a626ef09d4e21e1a8894ec,6737680fcfadee3c453c0aff,2024-11-15_16h27.22.365,Tarea de género gramatical,2024.2.2,MacIntel,109.8901099,,,,,,,,,,,,,,,,,,,,,,,,401.8001,402.7233,a,1,[],[],[],[],[],[],[],0.2575,1,402.7233,403.224,,,,,,1139,MAS,AGR,150,reloj,el,l,0.2575,,403.2241,403.2243,-0.038562335,-0.410119048,0,0,0,,0,136,136,238,1,,,,
,,,,,,d872a2c0dcf0a498b5e42410,66a626ef09d4e21e1a8894ec,6737680fcfadee3c453c0aff,2024-11-15_16h27.22.365,Tarea de género gramatical,2024.2.2,MacIntel,109.8901099,,,,,,,,,,,,,,,,,,,,,,,,403.2255,404.1399,l,1,[],[],[],[],[],[],[],0.2532,1,404.14,404.6403,,,,,,1034,FEM,AGR,150,rama,la,a,0.2532,,404.6415,404.6426,-0.038562335,-0.410119048,0,0,0,,0,137,137,133,1,,,,
,,,,,,d872a2c0dcf0a498b5e42410,66a626ef09d4e21e1a8894ec,6737680fcfadee3c453c0aff,2024-11-15_16h27.22.365,Tarea de género gramatical,2024.2.2,MacIntel,109.8901099,,,,,,,,,,,,,,,,,,,,,,,,404.6435,405.5561,a,1,[],[],[],[],[],[],[],0.2513,1,405.5561,406.0571,,,,,,1150,MAS,DIS,150,cerdo,la,l,0.2513,,406.0573,406.0575,-0.038562335,-0.410119048,0,0,0,,0,138,138,249,1,,,,
,,,,,,d872a2c0dcf0a498b5e42410,66a626ef09d4e21e1a8894ec,6737680fcfadee3c453c0aff,2024-11-15_16h27.22.365,Tarea de género gramatical,2024.2.2,MacIntel,109.8901099,,,,,,,,,,,,,,,,,,,,,,,,406.0594,407.115,a,1,[],[],[],[],[],[],[],0.3958,1,407.1152,407.6149,,,,,,1223,MAS,AGR,150,marido,el,l,0.3958,,407.6151,407.6153,-0.038562335,-0.410119048,0,0,0,,0,139,139,322,1,,,,
,,,,,,d872a2c0dcf0a498b5e42410,66a626ef09d4e21e1a8894ec,6737680fcfadee3c453c0aff,2024-11-15_16h27.22.365,Tarea de género gramatical,2024.2.2,MacIntel,109.8901099,,,,,,,,,,,,,,,,,,,,,,,,407.6167,408.5988,a,0,[],[],[],[],[],[],[],0.3222,0,408.5995,409.0987,,,,,,1311,FEM,CON,150,actriz,,a,0.3222,,409.0988,409.099,-0.038562335,-0.410119048,0,0,0,,0,140,140,410,1,,,,
,,,,,,d872a2c0dcf0a498b5e42410,66a626ef09d4e21e1a8894ec,6737680fcfadee3c453c0aff,2024-11-15_16h27.22.365,Tarea de género gramatical,2024.2.2,MacIntel,109.8901099,,,,,,,,,,,,,,,,,,,,,,,,409.1012,409.9732,l,1,[],[],[],[],[],[],[],0.2106,1,409.9739,410.4743,,,,,,963,FEM,CON,150,fila,,a,0.2106,,410.476,410.4771,-0.038562335,-0.410119048,0,0,0,,0,141,141,62,1,,,,
,,,,,,d872a2c0dcf0a498b5e42410,66a626ef09d4e21e1a8894ec,6737680fcfadee3c453c0aff,2024-11-15_16h27.22.365,Tarea de género gramatical,2024.2.2,MacIntel,109.8901099,,,,,,,,,,,,,,,,,,,,,,,,410.4779,411.4899,l,1,[],[],[],[],[],[],[],0.3522,1,411.49,411.9901,,,,,,1321,FEM,DIS,150,novela,el,a,0.3522,,411.9901,411.9902,-0.038562335,-0.410119048,0,0,0,,0,142,142,420,1,,,,
,,,,,,d872a2c0dcf0a498b5e42410,66a626ef09d4e21e1a8894ec,6737680fcfadee3c453c0aff,2024-11-15_16h27.22.365,Tarea de género gramatical,2024.2.2,MacIntel,109.8901099,,,,,,,,,,,,,,,,,,,,,,,,411.9917,413.0651,a,1,[],[],[],[],[],[],[],0.4057,1,413.0652,413.5641,,,,,,1224,MAS,CON,150,cuarto,,l,0.4057,,413.5642,413.5643,-0.038562335,-0.410119048,0,0,0,,0,143,143,323,1,,,,
,,,,,,d872a2c0dcf0a498b5e42410,66a626ef09d4e21e1a8894ec,6737680fcfadee3c453c0aff,2024-11-15_16h27.22.365,Tarea de género gramatical,2024.2.2,MacIntel,109.8901099,,,,,,,,,,,,,,,,,,,,,,,,413.5654,414.7404,a,1,[],[],[],[],[],[],[],0.517,1,414.7406,415.2405,,,,,,1000,MAS,DIS,150,nido,la,l,0.517,,415.2407,415.2408,-0.038562335,-0.410119048,0,0,0,,0,144,144,99,1,,,,
,,,,,,d872a2c0dcf0a498b5e42410,66a626ef09d4e21e1a8894ec,6737680fcfadee3c453c0aff,2024-11-15_16h27.22.365,Tarea de género gramatical,2024.2.2,MacIntel,109.8901099,,,,,,,,,,,,,,,,,,,,,,,,415.2427,416.4474,a,1,[],[],[],[],[],[],[],0.5439,1,416.4475,416.9483,,,,,,953,MAS,AGR,150,vaso,el,l,0.5439,,416.9485,416.9486,-0.038562335,-0.410119048,0,0,0,,0,145,145,52,1,,,,
,,,,,,d872a2c0dcf0a498b5e42410,66a626ef09d4e21e1a8894ec,6737680fcfadee3c453c0aff,2024-11-15_16h27.22.365,Tarea de género gramatical,2024.2.2,MacIntel,109.8901099,,,,,,,,,,,,,,,,,,,,,,,,416.9498,417.9648,l,1,[],[],[],[],[],[],[],0.3467,1,417.9649,418.4651,,,,,,939,FEM,CON,150,luna,,a,0.3467,,418.4672,418.4687,-0.038562335,-0.410119048,0,0,0,,0,146,146,38,1,,,,
,,,,,,d872a2c0dcf0a498b5e42410,66a626ef09d4e21e1a8894ec,6737680fcfadee3c453c0aff,2024-11-15_16h27.22.365,Tarea de género gramatical,2024.2.2,MacIntel,109.8901099,,,,,,,,,,,,,,,,,,,,,,,,418.4695,419.4226,a,1,[],[],[],[],[],[],[],0.2935,1,419.4228,419.9239,,,,,,1235,MAS,AGR,150,montón,el,l,0.2935,,419.9241,419.9242,-0.038562335,-0.410119048,0,0,0,,0,147,147,334,1,,,,
,,,,,,d872a2c0dcf0a498b5e42410,66a626ef09d4e21e1a8894ec,6737680fcfadee3c453c0aff,2024-11-15_16h27.22.365,Tarea de género gramatical,2024.2.2,MacIntel,109.8901099,,,,,,,,,,,,,,,,,,,,,,,,419.9261,420.9485,a,1,[],[],[],[],[],[],[],0.3597,1,420.9487,421.4483,,,,,,1246,MAS,DIS,150,juicio,la,l,0.3597,,421.4483,421.4483,-0.038562335,-0.410119048,0,0,0,,0,148,148,345,1,,,,
,,,,,,d872a2c0dcf0a498b5e42410,66a626ef09d4e21e1a8894ec,6737680fcfadee3c453c0aff,2024-11-15_16h27.22.365,Tarea de género gramatical,2024.2.2,MacIntel,109.8901099,,,,,,,,,,,,,,,,,,,,,,,,421.4491,422.5148,a,1,[],[],[],[],[],[],[],0.3996,1,422.515,423.015,,,,,,924,MAS,CON,150,voto,,l,0.3996,,423.0151,423.0152,-0.038562335,-0.410119048,0,0,0,,0,149,149,23,1,,,,
,,,,,,d872a2c0dcf0a498b5e42410,66a626ef09d4e21e1a8894ec,6737680fcfadee3c453c0aff,2024-11-15_16h27.22.365,Tarea de género gramatical,2024.2.2,MacIntel,109.8901099,,,,,,,,,,,,,,,,,,,,,,,,423.0162,423.9649,a,1,[],[],[],[],[],[],[],0.2819,1,423.965,424.4657,,,,,,1085,MAS,AGR,150,sueño,el,l,0.2819,,424.4676,508.5149,-0.038562335,-0.410119048,0,0,0,space,0,150,150,184,1,84.0339,,,
,,,,,,d872a2c0dcf0a498b5e42410,66a626ef09d4e21e1a8894ec,6737680fcfadee3c453c0aff,2024-11-15_16h27.22.365,Tarea de género gramatical,2024.2.2,MacIntel,109.8901099,,,,,,,,,,,,,,,,,,,,,,,,508.5158,509.6988,l,1,[],[],[],[],[],[],[],0.5226,1,509.699,510.1984,,,,,,1275,FEM,CON,150,cadena,,a,0.5226,,510.1986,510.1991,-0.038562335,-0.410119048,0,0,0,,0,151,151,374,1,,,,
,,,,,,d872a2c0dcf0a498b5e42410,66a626ef09d4e21e1a8894ec,6737680fcfadee3c453c0aff,2024-11-15_16h27.22.365,Tarea de género gramatical,2024.2.2,MacIntel,109.8901099,,,,,,,,,,,,,,,,,,,,,,,,510.2013,511.1562,a,1,[],[],[],[],[],[],[],0.2893,1,511.1563,511.6566,,,,,,1308,MAS,CON,150,cheque,,l,0.2893,,511.6567,511.6569,-0.038562335,-0.410119048,0,0,0,,0,152,152,407,1,,,,
,,,,,,d872a2c0dcf0a498b5e42410,66a626ef09d4e21e1a8894ec,6737680fcfadee3c453c0aff,2024-11-15_16h27.22.365,Tarea de género gramatical,2024.2.2,MacIntel,109.8901099,,,,,,,,,,,,,,,,,,,,,,,,511.6587,512.7812,l,0,[],[],[],[],[],[],[],0.4576,0,512.7821,513.2804,,,,,,1174,MAS,DIS,150,motor,la,l,0.4576,,513.2805,513.2806,-0.038562335,-0.410119048,0,0,0,,0,153,153,273,1,,,,
,,,,,,d872a2c0dcf0a498b5e42410,66a626ef09d4e21e1a8894ec,6737680fcfadee3c453c0aff,2024-11-15_16h27.22.365,Tarea de género gramatical,2024.2.2,MacIntel,109.8901099,,,,,,,,,,,,,,,,,,,,,,,,513.2814,514.3972,a,1,[],[],[],[],[],[],[],0.4481,1,514.398,514.8983,,,,,,1180,MAS,DIS,150,salón,la,l,0.4481,,514.8984,514.8985,-0.038562335,-0.410119048,0,0,0,,0,154,154,279,1,,,,
,,,,,,d872a2c0dcf0a498b5e42410,66a626ef09d4e21e1a8894ec,6737680fcfadee3c453c0aff,2024-11-15_16h27.22.365,Tarea de género gramatical,2024.2.2,MacIntel,109.8901099,,,,,,,,,,,,,,,,,,,,,,,,514.9004,515.8143,a,1,[],[],[],[],[],[],[],0.2494,1,515.8144,516.3148,,,,,,942,MAS,CON,150,show,,l,0.2494,,516.316,516.3173,-0.038562335,-0.410119048,0,0,0,,0,155,155,41,1,,,,
,,,,,,d872a2c0dcf0a498b5e42410,66a626ef09d4e21e1a8894ec,6737680fcfadee3c453c0aff,2024-11-15_16h27.22.365,Tarea de género gramatical,2024.2.2,MacIntel,109.8901099,,,,,,,,,,,,,,,,,,,,,,,,516.3183,517.2309,a,1,[],[],[],[],[],[],[],0.251,1,517.231,517.7301,,,,,,941,MAS,AGR,150,bote,el,l,0.251,,517.7302,517.7304,-0.038562335,-0.410119048,0,0,0,,0,156,156,40,1,,,,
,,,,,,d872a2c0dcf0a498b5e42410,66a626ef09d4e21e1a8894ec,6737680fcfadee3c453c0aff,2024-11-15_16h27.22.365,Tarea de género gramatical,2024.2.2,MacIntel,109.8901099,,,,,,,,,,,,,,,,,,,,,,,,517.7314,518.6228,l,1,[],[],[],[],[],[],[],0.232,1,518.6229,519.123,,,,,,1093,FEM,DIS,150,bolsa,el,a,0.232,,519.1231,519.1233,-0.038562335,-0.410119048,0,0,0,,0,157,157,192,1,,,,
,,,,,,d872a2c0dcf0a498b5e42410,66a626ef09d4e21e1a8894ec,6737680fcfadee3c453c0aff,2024-11-15_16h27.22.365,Tarea de género gramatical,2024.2.2,MacIntel,109.8901099,,,,,,,,,,,,,,,,,,,,,,,,519.1252,520.0646,a,1,[],[],[],[],[],[],[],0.2736,1,520.0647,520.5649,,,,,,1126,MAS,DIS,150,color,la,l,0.2736,,520.565,520.5652,-0.038562335,-0.410119048,0,0,0,,0,158,158,225,1,,,,
,,,,,,d872a2c0dcf0a498b5e42410,66a626ef09d4e21e1a8894ec,6737680fcfadee3c453c0aff,2024-11-15_16h27.22.365,Tarea de género gramatical,2024.2.2,MacIntel,109.8901099,,,,,,,,,,,,,,,,,,,,,,,,520.5674,521.5639,a,1,[],[],[],[],[],[],[],0.3345,1,521.5641,522.065,,,,,,1241,MAS,AGR,150,precio,el,l,0.3345,,522.0669,522.0679,-0.038562335,-0.410119048,0,0,0,,0,159,159,340,1,,,,
,,,,,,d872a2c0dcf0a498b5e42410,66a626ef09d4e21e1a8894ec,6737680fcfadee3c453c0aff,2024-11-15_16h27.22.365,Tarea de género gramatical,2024.2.2,MacIntel,109.8901099,,,,,,,,,,,,,,,,,,,,,,,,522.0685,522.9895,a,1,[],[],[],[],[],[],[],0.2583,1,522.9898,523.4896,,,,,,936,MAS,CON,150,dedo,,l,0.2583,,523.4896,523.4897,-0.038562335,-0.410119048,0,0,0,,0,160,160,35,1,,,,
,,,,,,d872a2c0dcf0a498b5e42410,66a626ef09d4e21e1a8894ec,6737680fcfadee3c453c0aff,2024-11-15_16h27.22.365,Tarea de género gramatical,2024.2.2,MacIntel,109.8901099,,,,,,,,,,,,,,,,,,,,,,,,523.4917,524.4479,l,1,[],[],[],[],[],[],[],0.2935,1,524.448,524.9485,,,,,,1100,FEM,AGR,150,silla,la,a,0.2935,,524.9486,524.9489,-0.038562335,-0.410119048,0,0,0,,0,161,161,199,1,,,,
,,,,,,d872a2c0dcf0a498b5e42410,66a626ef09d4e21e1a8894ec,6737680fcfadee3c453c0aff,2024-11-15_16h27.22.365,Tarea de género gramatical,2024.2.2,MacIntel,109.8901099,,,,,,,,,,,,,,,,,,,,,,,,524.9501,525.8054,a,1,[],[],[],[],[],[],[],0.1926,1,525.8055,526.3066,,,,,,1050,MAS,CON,150,mozo,,l,0.1926,,526.3068,526.3069,-0.038562335,-0.410119048,0,0,0,,0,162,162,149,1,,,,
,,,,,,d872a2c0dcf0a498b5e42410,66a626ef09d4e21e1a8894ec,6737680fcfadee3c453c0aff,2024-11-15_16h27.22.365,Tarea de género gramatical,2024.2.2,MacIntel,109.8901099,,,,,,,,,,,,,,,,,,,,,,,,526.3087,527.3156,a,1,[],[],[],[],[],[],[],0.348,1,527.3157,527.8148,,,,,,958,MAS,DIS,150,mono,la,l,0.348,,527.815,527.8152,-0.038562335,-0.410119048,0,0,0,,0,163,163,57,1,,,,
,,,,,,d872a2c0dcf0a498b5e42410,66a626ef09d4e21e1a8894ec,6737680fcfadee3c453c0aff,2024-11-15_16h27.22.365,Tarea de género gramatical,2024.2.2,MacIntel,109.8901099,,,,,,,,,,,,,,,,,,,,,,,,527.8169,528.6814,a,1,[],[],[],[],[],[],[],0.2019,1,528.6816,529.1814,,,,,,990,MAS,CON,150,león,,l,0.2019,,529.1826,529.1838,-0.038562335,-0.410119048,0,0,0,,0,164,164,89,1,,,,
,,,,,,d872a2c0dcf0a498b5e42410,66a626ef09d4e21e1a8894ec,6737680fcfadee3c453c0aff,2024-11-15_16h27.22.365,Tarea de género gramatical,2024.2.2,MacIntel,109.8901099,,,,,,,,,,,,,,,,,,,,,,,,529.1849,530.0482,a,1,[],[],[],[],[],[],[],0.2004,1,530.0483,530.5482,,,,,,1055,MAS,AGR,150,mundo,el,l,0.2004,,530.5484,530.5486,-0.038562335,-0.410119048,0,0,0,,0,165,165,154,1,,,,
,,,,,,d872a2c0dcf0a498b5e42410,66a626ef09d4e21e1a8894ec,6737680fcfadee3c453c0aff,2024-11-15_16h27.22.365,Tarea de género gramatical,2024.2.2,MacIntel,109.8901099,,,,,,,,,,,,,,,,,,,,,,,,530.5504,531.3894,a,0,[],[],[],[],[],[],[],0.1748,0,531.3903,531.8895,,,,,,1208,FEM,AGR,150,semana,la,a,0.1748,,531.8896,531.8897,-0.038562335,-0.410119048,0,0,0,,0,166,166,307,1,,,,
,,,,,,d872a2c0dcf0a498b5e42410,66a626ef09d4e21e1a8894ec,6737680fcfadee3c453c0aff,2024-11-15_16h27.22.365,Tarea de género gramatical,2024.2.2,MacIntel,109.8901099,,,,,,,,,,,,,,,,,,,,,,,,531.8905,532.8645,l,1,[],[],[],[],[],[],[],0.3102,1,532.8653,533.3649,,,,,,903,FEM,CON,150,cosa,,a,0.3102,,533.365,533.3651,-0.038562335,-0.410119048,0,0,0,,0,167,167,2,1,,,,
,,,,,,d872a2c0dcf0a498b5e42410,66a626ef09d4e21e1a8894ec,6737680fcfadee3c453c0aff,2024-11-15_16h27.22.365,Tarea de género gramatical,2024.2.2,MacIntel,109.8901099,,,,,,,,,,,,,,,,,,,,,,,,533.3664,534.314,l,1,[],[],[],[],[],[],[],0.2873,1,534.3141,534.8149,,,,,,1285,FEM,DIS,150,muñeca,el,a,0.2873,,534.8169,534.8182,-0.038562335,-0.410119048,0,0,0,,0,168,168,384,1,,,,
,,,,,,d872a2c0dcf0a498b5e42410,66a626ef09d4e21e1a8894ec,6737680fcfadee3c453c0aff,2024-11-15_16h27.22.365,Tarea de género gramatical,2024.2.2,MacIntel,109.8901099,,,,,,,,,,,,,,,,,,,,,,,,534.8193,535.7892,l,1,[],[],[],[],[],[],[],0.3081,1,535.7894,536.2903,,,,,,921,FEM,CON,150,boca,,a,0.3081,,536.2904,536.2907,-0.038562335,-0.410119048,0,0,0,,0,169,169,20,1,,,,
,,,,,,d872a2c0dcf0a498b5e42410,66a626ef09d4e21e1a8894ec,6737680fcfadee3c453c0aff,2024-11-15_16h27.22.365,Tarea de género gramatical,2024.2.2,MacIntel,109.8901099,,,,,,,,,,,,,,,,,,,,,,,,536.2929,537.2979,a,0,[],[],[],[],[],[],[],0.3409,0,537.2985,537.7983,,,,,,1183,FEM,DIS,150,pluma,el,a,0.3409,,537.7985,537.7986,-0.038562335,-0.410119048,0,0,0,,0,170,170,282,1,,,,
,,,,,,d872a2c0dcf0a498b5e42410,66a626ef09d4e21e1a8894ec,6737680fcfadee3c453c0aff,2024-11-15_16h27.22.365,Tarea de género gramatical,2024.2.2,MacIntel,109.8901099,,,,,,,,,,,,,,,,,,,,,,,,537.8001,539.031,a,1,[],[],[],[],[],[],[],0.565,1,539.0318,539.5306,,,,,,912,MAS,CON,150,plan,,l,0.565,,539.5306,539.5309,-0.038562335,-0.410119048,0,0,0,,0,171,171,11,1,,,,
,,,,,,d872a2c0dcf0a498b5e42410,66a626ef09d4e21e1a8894ec,6737680fcfadee3c453c0aff,2024-11-15_16h27.22.365,Tarea de género gramatical,2024.2.2,MacIntel,109.8901099,,,,,,,,,,,,,,,,,,,,,,,,539.5322,540.5302,l,1,[],[],[],[],[],[],[],0.3341,1,540.5303,541.031,,,,,,1214,FEM,AGR,150,señora,la,a,0.3341,,541.0311,541.0311,-0.038562335,-0.410119048,0,0,0,,0,172,172,313,1,,,,
,,,,,,d872a2c0dcf0a498b5e42410,66a626ef09d4e21e1a8894ec,6737680fcfadee3c453c0aff,2024-11-15_16h27.22.365,Tarea de género gramatical,2024.2.2,MacIntel,109.8901099,,,,,,,,,,,,,,,,,,,,,,,,541.032,541.9893,a,1,[],[],[],[],[],[],[],0.2955,1,541.9895,542.4895,,,,,,983,MAS,AGR,150,nene,el,l,0.2955,,542.4913,542.4923,-0.038562335,-0.410119048,0,0,0,,0,173,173,82,1,,,,
,,,,,,d872a2c0dcf0a498b5e42410,66a626ef09d4e21e1a8894ec,6737680fcfadee3c453c0aff,2024-11-15_16h27.22.365,Tarea de género gramatical,2024.2.2,MacIntel,109.8901099,,,,,,,,,,,,,,,,,,,,,,,,542.4932,543.4641,l,1,[],[],[],[],[],[],[],0.3117,1,543.4642,543.9643,,,,,,985,FEM,DIS,150,gira,el,a,0.3117,,543.9643,543.9644,-0.038562335,-0.410119048,0,0,0,,0,174,174,84,1,,,,
,,,,,,d872a2c0dcf0a498b5e42410,66a626ef09d4e21e1a8894ec,6737680fcfadee3c453c0aff,2024-11-15_16h27.22.365,Tarea de género gramatical,2024.2.2,MacIntel,109.8901099,,,,,,,,,,,,,,,,,,,,,,,,543.9653,544.931,l,1,[],[],[],[],[],[],[],0.3021,1,544.9312,545.431,,,,,,1177,FEM,DIS,150,plaza,el,a,0.3021,,545.4312,545.4314,-0.038562335,-0.410119048,0,0,0,,0,175,175,276,1,,,,
,,,,,,d872a2c0dcf0a498b5e42410,66a626ef09d4e21e1a8894ec,6737680fcfadee3c453c0aff,2024-11-15_16h27.22.365,Tarea de género gramatical,2024.2.2,MacIntel,109.8901099,,,,,,,,,,,,,,,,,,,,,,,,545.4327,546.4142,l,1,[],[],[],[],[],[],[],0.318,1,546.4145,546.9146,,,,,,1256,FEM,AGR,150,piedra,la,a,0.318,,546.9147,546.9148,-0.038562335,-0.410119048,0,0,0,,0,176,176,355,1,,,,
,,,,,,d872a2c0dcf0a498b5e42410,66a626ef09d4e21e1a8894ec,6737680fcfadee3c453c0aff,2024-11-15_16h27.22.365,Tarea de género gramatical,2024.2.2,MacIntel,109.8901099,,,,,,,,,,,,,,,,,,,,,,,,546.9162,547.9312,a,1,[],[],[],[],[],[],[],0.3533,1,547.9312,548.4316,,,,,,911,MAS,AGR,150,país,el,l,0.3533,,548.4335,548.4345,-0.038562335,-0.410119048,0,0,0,,0,177,177,10,1,,,,
,,,,,,d872a2c0dcf0a498b5e42410,66a626ef09d4e21e1a8894ec,6737680fcfadee3c453c0aff,2024-11-15_16h27.22.365,Tarea de género gramatical,2024.2.2,MacIntel,109.8901099,,,,,,,,,,,,,,,,,,,,,,,,548.4351,549.6393,l,1,[],[],[],[],[],[],[],0.5419,1,549.6395,550.1394,,,,,,1232,FEM,AGR,150,basura,la,a,0.5419,,550.1395,550.1396,-0.038562335,-0.410119048,0,0,0,,0,178,178,331,1,,,,
,,,,,,d872a2c0dcf0a498b5e42410,66a626ef09d4e21e1a8894ec,6737680fcfadee3c453c0aff,2024-11-15_16h27.22.365,Tarea de género gramatical,2024.2.2,MacIntel,109.8901099,,,,,,,,,,,,,,,,,,,,,,,,550.1409,551.1813,l,1,[],[],[],[],[],[],[],0.3748,1,551.1814,551.6813,,,,,,1274,FEM,AGR,150,herida,la,a,0.3748,,551.6814,551.6815,-0.038562335,-0.410119048,0,0,0,,0,179,179,373,1,,,,
,,,,,,d872a2c0dcf0a498b5e42410,66a626ef09d4e21e1a8894ec,6737680fcfadee3c453c0aff,2024-11-15_16h27.22.365,Tarea de género gramatical,2024.2.2,MacIntel,109.8901099,,,,,,,,,,,,,,,,,,,,,,,,551.6828,552.7726,a,1,[],[],[],[],[],[],[],0.4275,1,552.7727,553.2731,,,,,,1151,MAS,AGR,150,dueño,el,l,0.4275,,553.2732,553.2734,-0.038562335,-0.410119048,0,0,0,,0,180,180,250,1,,,,
,,,,,,d872a2c0dcf0a498b5e42410,66a626ef09d4e21e1a8894ec,6737680fcfadee3c453c0aff,2024-11-15_16h27.22.365,Tarea de género gramatical,2024.2.2,MacIntel,109.8901099,,,,,,,,,,,,,,,,,,,,,,,,553.2756,554.3054,a,1,[],[],[],[],[],[],[],0.3711,1,554.3055,554.8063,,,,,,966,MAS,CON,150,muro,,l,0.3711,,554.8064,554.8066,-0.038562335,-0.410119048,0,0,0,,0,181,181,65,1,,,,
,,,,,,d872a2c0dcf0a498b5e42410,66a626ef09d4e21e1a8894ec,6737680fcfadee3c453c0aff,2024-11-15_16h27.22.365,Tarea de género gramatical,2024.2.2,MacIntel,109.8901099,,,,,,,,,,,,,,,,,,,,,,,,554.8078,555.8316,l,1,[],[],[],[],[],[],[],0.3629,1,555.8317,556.3314,,,,,,1189,FEM,DIS,150,tabla,el,a,0.3629,,556.3327,556.3341,-0.038562335,-0.410119048,0,0,0,,0,182,182,288,1,,,,
,,,,,,d872a2c0dcf0a498b5e42410,66a626ef09d4e21e1a8894ec,6737680fcfadee3c453c0aff,2024-11-15_16h27.22.365,Tarea de género gramatical,2024.2.2,MacIntel,109.8901099,,,,,,,,,,,,,,,,,,,,,,,,556.3352,557.4149,l,1,[],[],[],[],[],[],[],0.4154,1,557.4151,557.9147,,,,,,1137,FEM,CON,150,ducha,,a,0.4154,,557.9148,557.9149,-0.038562335,-0.410119048,0,0,0,,0,183,183,236,1,,,,
,,,,,,d872a2c0dcf0a498b5e42410,66a626ef09d4e21e1a8894ec,6737680fcfadee3c453c0aff,2024-11-15_16h27.22.365,Tarea de género gramatical,2024.2.2,MacIntel,109.8901099,,,,,,,,,,,,,,,,,,,,,,,,557.9162,558.8637,l,1,[],[],[],[],[],[],[],0.2835,1,558.8638,559.3649,,,,,,1197,FEM,CON,150,manta,,a,0.2835,,559.3651,559.3652,-0.038562335,-0.410119048,0,0,0,,0,184,184,296,1,,,,
,,,,,,d872a2c0dcf0a498b5e42410,66a626ef09d4e21e1a8894ec,6737680fcfadee3c453c0aff,2024-11-15_16h27.22.365,Tarea de género gramatical,2024.2.2,MacIntel,109.8901099,,,,,,,,,,,,,,,,,,,,,,,,559.3673,560.456,a,1,[],[],[],[],[],[],[],0.4284,1,560.4561,560.956,,,,,,1326,MAS,CON,150,pánico,,l,0.4284,,560.956,560.9561,-0.038562335,-0.410119048,0,0,0,,0,185,185,425,1,,,,
,,,,,,d872a2c0dcf0a498b5e42410,66a626ef09d4e21e1a8894ec,6737680fcfadee3c453c0aff,2024-11-15_16h27.22.365,Tarea de género gramatical,2024.2.2,MacIntel,109.8901099,,,,,,,,,,,,,,,,,,,,,,,,560.957,562.0894,a,1,[],[],[],[],[],[],[],0.4688,1,562.0895,562.5899,,,,,,1014,MAS,CON,150,menú,,l,0.4688,,562.5916,562.5936,-0.038562335,-0.410119048,0,0,0,,0,186,186,113,1,,,,
,,,,,,d872a2c0dcf0a498b5e42410,66a626ef09d4e21e1a8894ec,6737680fcfadee3c453c0aff,2024-11-15_16h27.22.365,Tarea de género gramatical,2024.2.2,MacIntel,109.8901099,,,,,,,,,,,,,,,,,,,,,,,,562.5948,563.6317,a,1,[],[],[],[],[],[],[],0.3803,1,563.6318,564.131,,,,,,1096,MAS,DIS,150,barco,la,l,0.3803,,564.1311,564.1312,-0.038562335,-0.410119048,0,0,0,,0,187,187,195,1,,,,
,,,,,,d872a2c0dcf0a498b5e42410,66a626ef09d4e21e1a8894ec,6737680fcfadee3c453c0aff,2024-11-15_16h27.22.365,Tarea de género gramatical,2024.2.2,MacIntel,109.8901099,,,,,,,,,,,,,,,,,,,,,,,,564.1327,565.234,a,1,[],[],[],[],[],[],[],0.4388,1,565.2341,565.7319,,,,,,1252,MAS,DIS,150,estilo,la,l,0.4388,,565.732,565.7322,-0.038562335,-0.410119048,0,0,0,,0,188,188,351,1,,,,
,,,,,,d872a2c0dcf0a498b5e42410,66a626ef09d4e21e1a8894ec,6737680fcfadee3c453c0aff,2024-11-15_16h27.22.365,Tarea de género gramatical,2024.2.2,MacIntel,109.8901099,,,,,,,,,,,,,,,,,,,,,,,,565.734,566.7977,l,1,[],[],[],[],[],[],[],0.4013,1,566.7978,567.2981,,,,,,932,FEM,AGR,150,caja,la,a,0.4013,,567.2982,567.2984,-0.038562335,-0.410119048,0,0,0,,0,189,189,31,1,,,,
,,,,,,d872a2c0dcf0a498b5e42410,66a626ef09d4e21e1a8894ec,6737680fcfadee3c453c0aff,2024-11-15_16h27.22.365,Tarea de género gramatical,2024.2.2,MacIntel,109.8901099,,,,,,,,,,,,,,,,,,,,,,,,567.3006,568.2809,a,1,[],[],[],[],[],[],[],0.3173,1,568.281,568.7812,,,,,,1234,MAS,DIS,150,ataque,la,l,0.3173,,568.7812,568.7814,-0.038562335,-0.410119048,0,0,0,,0,190,190,333,1,,,,
,,,,,,d872a2c0dcf0a498b5e42410,66a626ef09d4e21e1a8894ec,6737680fcfadee3c453c0aff,2024-11-15_16h27.22.365,Tarea de género gramatical,2024.2.2,MacIntel,109.8901099,,,,,,,,,,,,,,,,,,,,,,,,568.7828,569.772,a,1,[],[],[],[],[],[],[],0.3272,1,569.7721,570.2732,,,,,,1110,MAS,CON,150,baile,,l,0.3272,,570.2752,570.2764,-0.038562335,-0.410119048,0,0,0,,0,191,191,209,1,,,,
,,,,,,d872a2c0dcf0a498b5e42410,66a626ef09d4e21e1a8894ec,6737680fcfadee3c453c0aff,2024-11-15_16h27.22.365,Tarea de género gramatical,2024.2.2,MacIntel,109.8901099,,,,,,,,,,,,,,,,,,,,,,,,570.2775,571.2818,l,1,[],[],[],[],[],[],[],0.3455,1,571.2818,571.7813,,,,,,1011,FEM,CON,150,goma,,a,0.3455,,571.7813,571.7815,-0.038562335,-0.410119048,0,0,0,,0,192,192,110,1,,,,
,,,,,,d872a2c0dcf0a498b5e42410,66a626ef09d4e21e1a8894ec,6737680fcfadee3c453c0aff,2024-11-15_16h27.22.365,Tarea de género gramatical,2024.2.2,MacIntel,109.8901099,,,,,,,,,,,,,,,,,,,,,,,,571.7834,572.673,a,1,[],[],[],[],[],[],[],0.2269,1,572.6732,573.173,,,,,,1086,MAS,CON,150,error,,l,0.2269,,573.1732,573.1732,-0.038562335,-0.410119048,0,0,0,,0,193,193,185,1,,,,
,,,,,,d872a2c0dcf0a498b5e42410,66a626ef09d4e21e1a8894ec,6737680fcfadee3c453c0aff,2024-11-15_16h27.22.365,Tarea de género gramatical,2024.2.2,MacIntel,109.8901099,,,,,,,,,,,,,,,,,,,,,,,,573.1746,574.0809,a,1,[],[],[],[],[],[],[],0.2431,1,574.081,574.5801,,,,,,1080,MAS,CON,150,fuego,,l,0.2431,,574.5804,574.5806,-0.038562335,-0.410119048,0,0,0,,0,194,194,179,1,,,,
,,,,,,d872a2c0dcf0a498b5e42410,66a626ef09d4e21e1a8894ec,6737680fcfadee3c453c0aff,2024-11-15_16h27.22.365,Tarea de género gramatical,2024.2.2,MacIntel,109.8901099,,,,,,,,,,,,,,,,,,,,,,,,574.5825,575.6892,l,1,[],[],[],[],[],[],[],0.4403,1,575.6893,576.1894,,,,,,998,FEM,AGR,150,fuga,la,a,0.4403,,576.1912,576.1921,-0.038562335,-0.410119048,0,0,0,,0,195,195,97,1,,,,
,,,,,,d872a2c0dcf0a498b5e42410,66a626ef09d4e21e1a8894ec,6737680fcfadee3c453c0aff,2024-11-15_16h27.22.365,Tarea de género gramatical,2024.2.2,MacIntel,109.8901099,,,,,,,,,,,,,,,,,,,,,,,,576.1928,577.131,a,1,[],[],[],[],[],[],[],0.2725,1,577.1311,577.6307,,,,,,1038,MAS,CON,150,luto,,l,0.2725,,577.6308,577.6308,-0.038562335,-0.410119048,0,0,0,,0,196,196,137,1,,,,
,,,,,,d872a2c0dcf0a498b5e42410,66a626ef09d4e21e1a8894ec,6737680fcfadee3c453c0aff,2024-11-15_16h27.22.365,Tarea de género gramatical,2024.2.2,MacIntel,109.8901099,,,,,,,,,,,,,,,,,,,,,,,,577.6316,578.5809,a,1,[],[],[],[],[],[],[],0.2848,1,578.581,579.0815,,,,,,1254,MAS,CON,150,camión,,l,0.2848,,579.0817,579.0818,-0.038562335,-0.410119048,0,0,0,,0,197,197,353,1,,,,
,,,,,,d872a2c0dcf0a498b5e42410,66a626ef09d4e21e1a8894ec,6737680fcfadee3c453c0aff,2024-11-15_16h27.22.365,Tarea de género gramatical,2024.2.2,MacIntel,109.8901099,,,,,,,,,,,,,,,,,,,,,,,,579.0839,580.1224,l,1,[],[],[],[],[],[],[],0.3751,1,580.1224,580.6228,,,,,,1119,FEM,CON,150,costa,,a,0.3751,,580.623,580.6231,-0.038562335,-0.410119048,0,0,0,,0,198,198,218,1,,,,
,,,,,,d872a2c0dcf0a498b5e42410,66a626ef09d4e21e1a8894ec,6737680fcfadee3c453c0aff,2024-11-15_16h27.22.365,Tarea de género gramatical,2024.2.2,MacIntel,109.8901099,,,,,,,,,,,,,,,,,,,,,,,,580.6246,581.7566,a,1,[],[],[],[],[],[],[],0.4713,1,581.7567,582.2564,,,,,,1031,MAS,AGR,150,kilo,el,l,0.4713,,582.2566,582.2567,-0.038562335,-0.410119048,0,0,0,,0,199,199,130,1,,,,
,,,,,,d872a2c0dcf0a498b5e42410,66a626ef09d4e21e1a8894ec,6737680fcfadee3c453c0aff,2024-11-15_16h27.22.365,Tarea de género gramatical,2024.2.2,MacIntel,109.8901099,,,,,,,,,,,,,,,,,,,,,,,,582.2586,583.1646,a,1,[],[],[],[],[],[],[],0.2409,1,583.1647,583.664,,,,,,1068,MAS,CON,150,sitio,,l,0.2409,,583.6658,583.667,-0.038562335,-0.410119048,0,0,0,,0,200,200,167,1,,,,
,,,,,,d872a2c0dcf0a498b5e42410,66a626ef09d4e21e1a8894ec,6737680fcfadee3c453c0aff,2024-11-15_16h27.22.365,Tarea de género gramatical,2024.2.2,MacIntel,109.8901099,,,,,,,,,,,,,,,,,,,,,,,,583.6677,584.7084,a,1,[],[],[],[],[],[],[],0.3812,1,584.7086,585.2063,,,,,,1049,MAS,AGR,150,nudo,el,l,0.3812,,585.2064,585.2067,-0.038562335,-0.410119048,0,0,0,,0,201,201,148,1,,,,
,,,,,,d872a2c0dcf0a498b5e42410,66a626ef09d4e21e1a8894ec,6737680fcfadee3c453c0aff,2024-11-15_16h27.22.365,Tarea de género gramatical,2024.2.2,MacIntel,109.8901099,,,,,,,,,,,,,,,,,,,,,,,,585.2087,586.2309,l,1,[],[],[],[],[],[],[],0.3614,1,586.2311,586.7315,,,,,,1327,FEM,DIS,150,agenda,el,a,0.3614,,586.7317,586.7318,-0.038562335,-0.410119048,0,0,0,,0,202,202,426,1,,,,
,,,,,,d872a2c0dcf0a498b5e42410,66a626ef09d4e21e1a8894ec,6737680fcfadee3c453c0aff,2024-11-15_16h27.22.365,Tarea de género gramatical,2024.2.2,MacIntel,109.8901099,,,,,,,,,,,,,,,,,,,,,,,,586.7338,587.7141,l,1,[],[],[],[],[],[],[],0.3191,1,587.7143,588.2136,,,,,,908,FEM,AGR,150,idea,la,a,0.3191,,588.2136,588.2137,-0.038562335,-0.410119048,0,0,0,,0,203,203,7,1,,,,
,,,,,,d872a2c0dcf0a498b5e42410,66a626ef09d4e21e1a8894ec,6737680fcfadee3c453c0aff,2024-11-15_16h27.22.365,Tarea de género gramatical,2024.2.2,MacIntel,109.8901099,,,,,,,,,,,,,,,,,,,,,,,,588.2147,589.1305,l,1,[],[],[],[],[],[],[],0.2515,1,589.1307,589.6313,,,,,,993,FEM,CON,150,lata,,a,0.2515,,589.6329,589.6345,-0.038562335,-0.410119048,0,0,0,,0,204,204,92,1,,,,
,,,,,,d872a2c0dcf0a498b5e42410,66a626ef09d4e21e1a8894ec,6737680fcfadee3c453c0aff,2024-11-15_16h27.22.365,Tarea de género gramatical,2024.2.2,MacIntel,109.8901099,,,,,,,,,,,,,,,,,,,,,,,,589.6355,590.5559,a,1,[],[],[],[],[],[],[],0.2598,1,590.556,591.0565,,,,,,1301,MAS,AGR,150,abrigo,el,l,0.2598,,591.0566,591.0568,-0.038562335,-0.410119048,0,0,0,,0,205,205,400,1,,,,
,,,,,,d872a2c0dcf0a498b5e42410,66a626ef09d4e21e1a8894ec,6737680fcfadee3c453c0aff,2024-11-15_16h27.22.365,Tarea de género gramatical,2024.2.2,MacIntel,109.8901099,,,,,,,,,,,,,,,,,,,,,,,,591.0582,591.9641,l,1,[],[],[],[],[],[],[],0.2432,1,591.9642,592.4645,,,,,,1147,FEM,DIS,150,frase,el,a,0.2432,,592.4647,592.4649,-0.038562335,-0.410119048,0,0,0,,0,206,206,246,1,,,,
,,,,,,d872a2c0dcf0a498b5e42410,66a626ef09d4e21e1a8894ec,6737680fcfadee3c453c0aff,2024-11-15_16h27.22.365,Tarea de género gramatical,2024.2.2,MacIntel,109.8901099,,,,,,,,,,,,,,,,,,,,,,,,592.4671,593.4556,a,1,[],[],[],[],[],[],[],0.3278,1,593.4557,593.9558,,,,,,1332,MAS,CON,150,océano,,l,0.3278,,593.9558,593.9559,-0.038562335,-0.410119048,0,0,0,,0,207,207,431,1,,,,
,,,,,,d872a2c0dcf0a498b5e42410,66a626ef09d4e21e1a8894ec,6737680fcfadee3c453c0aff,2024-11-15_16h27.22.365,Tarea de género gramatical,2024.2.2,MacIntel,109.8901099,,,,,,,,,,,,,,,,,,,,,,,,593.9568,594.9391,l,1,[],[],[],[],[],[],[],0.3204,1,594.9393,595.4396,,,,,,1143,FEM,CON,150,salsa,,a,0.3204,,595.4396,595.4399,-0.038562335,-0.410119048,0,0,0,,0,208,208,242,1,,,,
,,,,,,d872a2c0dcf0a498b5e42410,66a626ef09d4e21e1a8894ec,6737680fcfadee3c453c0aff,2024-11-15_16h27.22.365,Tarea de género gramatical,2024.2.2,MacIntel,109.8901099,,,,,,,,,,,,,,,,,,,,,,,,595.442,596.4311,a,1,[],[],[],[],[],[],[],0.328,1,596.4312,596.9313,,,,,,1128,MAS,CON,150,nivel,,l,0.328,,596.9331,596.9344,-0.038562335,-0.410119048,0,0,0,,0,209,209,227,1,,,,
,,,,,,d872a2c0dcf0a498b5e42410,66a626ef09d4e21e1a8894ec,6737680fcfadee3c453c0aff,2024-11-15_16h27.22.365,Tarea de género gramatical,2024.2.2,MacIntel,109.8901099,,,,,,,,,,,,,,,,,,,,,,,,596.9352,597.8556,a,0,[],[],[],[],[],[],[],0.2592,0,597.8575,598.3562,,,,,,1173,FEM,CON,150,tarta,,a,0.2592,,598.3562,598.3564,-0.038562335,-0.410119048,0,0,0,,0,210,210,272,1,,,,
,,,,,,d872a2c0dcf0a498b5e42410,66a626ef09d4e21e1a8894ec,6737680fcfadee3c453c0aff,2024-11-15_16h27.22.365,Tarea de género gramatical,2024.2.2,MacIntel,109.8901099,,,,,,,,,,,,,,,,,,,,,,,,598.3576,599.2806,a,0,[],[],[],[],[],[],[],0.2583,0,599.2808,599.7801,,,,,,1233,FEM,CON,150,locura,,a,0.2583,,599.7802,599.7803,-0.038562335,-0.410119048,0,0,0,,0,211,211,332,1,,,,
,,,,,,d872a2c0dcf0a498b5e42410,66a626ef09d4e21e1a8894ec,6737680fcfadee3c453c0aff,2024-11-15_16h27.22.365,Tarea de género gramatical,2024.2.2,MacIntel,109.8901099,,,,,,,,,,,,,,,,,,,,,,,,599.7821,600.7299,a,1,[],[],[],[],[],[],[],0.2839,1,600.7306,601.231,,,,,,916,MAS,DIS,150,baño,la,l,0.2839,,601.2312,601.2314,-0.038562335,-0.410119048,0,0,0,,0,212,212,15,1,,,,
,,,,,,d872a2c0dcf0a498b5e42410,66a626ef09d4e21e1a8894ec,6737680fcfadee3c453c0aff,2024-11-15_16h27.22.365,Tarea de género gramatical,2024.2.2,MacIntel,109.8901099,,,,,,,,,,,,,,,,,,,,,,,,601.2329,602.1391,l,1,[],[],[],[],[],[],[],0.2432,1,602.1392,602.6395,,,,,,907,FEM,DIS,150,hora,el,a,0.2432,,602.6416,602.6431,-0.038562335,-0.410119048,0,0,0,,0,213,213,6,1,,,,
,,,,,,d872a2c0dcf0a498b5e42410,66a626ef09d4e21e1a8894ec,6737680fcfadee3c453c0aff,2024-11-15_16h27.22.365,Tarea de género gramatical,2024.2.2,MacIntel,109.8901099,,,,,,,,,,,,,,,,,,,,,,,,602.6442,603.5975,l,1,[],[],[],[],[],[],[],0.29,1,603.5976,604.0981,,,,,,1021,FEM,DIS,150,pila,el,a,0.29,,604.0983,604.0986,-0.038562335,-0.410119048,0,0,0,,0,214,214,120,1,,,,
,,,,,,d872a2c0dcf0a498b5e42410,66a626ef09d4e21e1a8894ec,6737680fcfadee3c453c0aff,2024-11-15_16h27.22.365,Tarea de género gramatical,2024.2.2,MacIntel,109.8901099,,,,,,,,,,,,,,,,,,,,,,,,604.1004,605.0806,a,1,[],[],[],[],[],[],[],0.3202,1,605.0808,605.5804,,,,,,1062,MAS,CON,150,miedo,,l,0.3202,,605.5805,605.5807,-0.038562335,-0.410119048,0,0,0,,0,215,215,161,1,,,,
,,,,,,d872a2c0dcf0a498b5e42410,66a626ef09d4e21e1a8894ec,6737680fcfadee3c453c0aff,2024-11-15_16h27.22.365,Tarea de género gramatical,2024.2.2,MacIntel,109.8901099,,,,,,,,,,,,,,,,,,,,,,,,605.5821,606.5308,a,1,[],[],[],[],[],[],[],0.2848,1,606.531,607.0309,,,,,,1175,MAS,AGR,150,disco,el,l,0.2848,,607.031,607.031,-0.038562335,-0.410119048,0,0,0,,0,216,216,274,1,,,,
,,,,,,d872a2c0dcf0a498b5e42410,66a626ef09d4e21e1a8894ec,6737680fcfadee3c453c0aff,2024-11-15_16h27.22.365,Tarea de género gramatical,2024.2.2,MacIntel,109.8901099,,,,,,,,,,,,,,,,,,,,,,,,607.032,608.1558,a,1,[],[],[],[],[],[],[],0.4603,1,608.156,608.6554,,,,,,1078,MAS,DIS,150,punto,la,l,0.4603,,608.6555,608.6557,-0.038562335,-0.410119048,0,0,0,,0,217,217,177,1,,,,
,,,,,,d872a2c0dcf0a498b5e42410,66a626ef09d4e21e1a8894ec,6737680fcfadee3c453c0aff,2024-11-15_16h27.22.365,Tarea de género gramatical,2024.2.2,MacIntel,109.8901099,,,,,,,,,,,,,,,,,,,,,,,,608.6574,609.5974,l,0,[],[],[],[],[],[],[],0.2761,0,609.5981,610.0967,,,,,,1216,MAS,DIS,150,cuerpo,la,l,0.2761,,610.0976,610.0983,-0.038562335,-0.410119048,0,0,0,,0,218,218,315,1,,,,
,,,,,,d872a2c0dcf0a498b5e42410,66a626ef09d4e21e1a8894ec,6737680fcfadee3c453c0aff,2024-11-15_16h27.22.365,Tarea de género gramatical,2024.2.2,MacIntel,109.8901099,,,,,,,,,,,,,,,,,,,,,,,,610.0989,611.1636,a,1,[],[],[],[],[],[],[],0.4038,1,611.1644,611.6643,,,,,,1048,MAS,DIS,150,surf,la,l,0.4038,,611.6645,611.6647,-0.038562335,-0.410119048,0,0,0,,0,219,219,147,1,,,,
,,,,,,d872a2c0dcf0a498b5e42410,66a626ef09d4e21e1a8894ec,6737680fcfadee3c453c0aff,2024-11-15_16h27.22.365,Tarea de género gramatical,2024.2.2,MacIntel,109.8901099,,,,,,,,,,,,,,,,,,,,,,,,611.6665,612.6549,a,1,[],[],[],[],[],[],[],0.327,1,612.655,613.1555,,,,,,989,MAS,AGR,150,maíz,el,l,0.327,,613.1556,613.1558,-0.038562335,-0.410119048,0,0,0,,0,220,220,88,1,,,,
,,,,,,d872a2c0dcf0a498b5e42410,66a626ef09d4e21e1a8894ec,6737680fcfadee3c453c0aff,2024-11-15_16h27.22.365,Tarea de género gramatical,2024.2.2,MacIntel,109.8901099,,,,,,,,,,,,,,,,,,,,,,,,613.1571,614.0715,a,1,[],[],[],[],[],[],[],0.249,1,614.0716,614.5716,,,,,,1104,MAS,CON,150,papel,,l,0.249,,614.5717,614.5718,-0.038562335,-0.410119048,0,0,0,,0,221,221,203,1,,,,
,,,,,,d872a2c0dcf0a498b5e42410,66a626ef09d4e21e1a8894ec,6737680fcfadee3c453c0aff,2024-11-15_16h27.22.365,Tarea de género gramatical,2024.2.2,MacIntel,109.8901099,,,,,,,,,,,,,,,,,,,,,,,,614.5736,615.6474,l,1,[],[],[],[],[],[],[],0.4087,1,615.6475,616.1476,,,,,,1215,FEM,CON,150,manera,,a,0.4087,,616.1489,616.15,-0.038562335,-0.410119048,0,0,0,,0,222,222,314,1,,,,
,,,,,,d872a2c0dcf0a498b5e42410,66a626ef09d4e21e1a8894ec,6737680fcfadee3c453c0aff,2024-11-15_16h27.22.365,Tarea de género gramatical,2024.2.2,MacIntel,109.8901099,,,,,,,,,,,,,,,,,,,,,,,,616.1509,617.1802,l,1,[],[],[],[],[],[],[],0.3652,1,617.1804,617.6809,,,,,,956,FEM,AGR,150,bola,la,a,0.3652,,617.6811,617.6812,-0.038562335,-0.410119048,0,0,0,,0,223,223,55,1,,,,
,,,,,,d872a2c0dcf0a498b5e42410,66a626ef09d4e21e1a8894ec,6737680fcfadee3c453c0aff,2024-11-15_16h27.22.365,Tarea de género gramatical,2024.2.2,MacIntel,109.8901099,,,,,,,,,,,,,,,,,,,,,,,,617.6827,618.614,a,1,[],[],[],[],[],[],[],0.2699,1,618.6141,619.1145,,,,,,1276,MAS,DIS,150,efecto,la,l,0.2699,,619.1146,619.1149,-0.038562335,-0.410119048,0,0,0,,0,224,224,375,1,,,,
,,,,,,d872a2c0dcf0a498b5e42410,66a626ef09d4e21e1a8894ec,6737680fcfadee3c453c0aff,2024-11-15_16h27.22.365,Tarea de género gramatical,2024.2.2,MacIntel,109.8901099,,,,,,,,,,,,,,,,,,,,,,,,619.1171,620.155,a,1,[],[],[],[],[],[],[],0.3773,1,620.1551,620.6557,,,,,,934,MAS,DIS,150,gato,la,l,0.3773,,620.6557,620.6558,-0.038562335,-0.410119048,0,0,0,,0,225,225,33,1,,,,
,,,,,,d872a2c0dcf0a498b5e42410,66a626ef09d4e21e1a8894ec,6737680fcfadee3c453c0aff,2024-11-15_16h27.22.365,Tarea de género gramatical,2024.2.2,MacIntel,109.8901099,,,,,,,,,,,,,,,,,,,,,,,,620.6567,621.7307,a,1,[],[],[],[],[],[],[],0.4097,1,621.7309,622.2311,,,,,,1133,MAS,AGR,150,golpe,el,l,0.4097,,622.2313,622.2315,-0.038562335,-0.410119048,0,0,0,,0,226,226,232,1,,,,
,,,,,,d872a2c0dcf0a498b5e42410,66a626ef09d4e21e1a8894ec,6737680fcfadee3c453c0aff,2024-11-15_16h27.22.365,Tarea de género gramatical,2024.2.2,MacIntel,109.8901099,,,,,,,,,,,,,,,,,,,,,,,,622.2338,623.2307,l,0,[],[],[],[],[],[],[],0.3319,0,623.2315,623.731,,,,,,1282,MAS,DIS,150,teatro,la,l,0.3319,,623.7323,623.7336,-0.038562335,-0.410119048,0,0,0,,0,227,227,381,1,,,,
,,,,,,d872a2c0dcf0a498b5e42410,66a626ef09d4e21e1a8894ec,6737680fcfadee3c453c0aff,2024-11-15_16h27.22.365,Tarea de género gramatical,2024.2.2,MacIntel,109.8901099,,,,,,,,,,,,,,,,,,,,,,,,623.7346,624.6809,l,1,[],[],[],[],[],[],[],0.2868,1,624.6819,625.1815,,,,,,1185,FEM,CON,150,mafia,,a,0.2868,,625.1817,625.182,-0.038562335,-0.410119048,0,0,0,,0,228,228,284,1,,,,
,,,,,,d872a2c0dcf0a498b5e42410,66a626ef09d4e21e1a8894ec,6737680fcfadee3c453c0aff,2024-11-15_16h27.22.365,Tarea de género gramatical,2024.2.2,MacIntel,109.8901099,,,,,,,,,,,,,,,,,,,,,,,,625.1839,626.206,l,1,[],[],[],[],[],[],[],0.3627,1,626.2061,626.7062,,,,,,1089,FEM,CON,150,pista,,a,0.3627,,626.7063,626.7065,-0.038562335,-0.410119048,0,0,0,,0,229,229,188,1,,,,
,,,,,,d872a2c0dcf0a498b5e42410,66a626ef09d4e21e1a8894ec,6737680fcfadee3c453c0aff,2024-11-15_16h27.22.365,Tarea de género gramatical,2024.2.2,MacIntel,109.8901099,,,,,,,,,,,,,,,,,,,,,,,,626.7082,627.7474,l,1,[],[],[],[],[],[],[],0.3732,1,627.7475,628.2477,,,,,,1281,FEM,CON,150,bebida,,a,0.3732,,628.2478,628.2479,-0.038562335,-0.410119048,0,0,0,,0,230,230,380,1,,,,
,,,,,,d872a2c0dcf0a498b5e42410,66a626ef09d4e21e1a8894ec,6737680fcfadee3c453c0aff,2024-11-15_16h27.22.365,Tarea de género gramatical,2024.2.2,MacIntel,109.8901099,,,,,,,,,,,,,,,,,,,,,,,,628.2497,629.132,l,1,[],[],[],[],[],[],[],0.2209,1,629.1321,629.6308,,,,,,927,FEM,CON,150,mesa,,a,0.2209,,629.6324,629.6333,-0.038562335,-0.410119048,0,0,0,,0,231,231,26,1,,,,
,,,,,,d872a2c0dcf0a498b5e42410,66a626ef09d4e21e1a8894ec,6737680fcfadee3c453c0aff,2024-11-15_16h27.22.365,Tarea de género gramatical,2024.2.2,MacIntel,109.8901099,,,,,,,,,,,,,,,,,,,,,,,,629.6342,630.5639,a,1,[],[],[],[],[],[],[],0.2692,1,630.5639,631.0639,,,,,,1024,MAS,DIS,150,clan,la,l,0.2692,,631.0641,631.0643,-0.038562335,-0.410119048,0,0,0,,0,232,232,123,1,,,,
,,,,,,d872a2c0dcf0a498b5e42410,66a626ef09d4e21e1a8894ec,6737680fcfadee3c453c0aff,2024-11-15_16h27.22.365,Tarea de género gramatical,2024.2.2,MacIntel,109.8901099,,,,,,,,,,,,,,,,,,,,,,,,631.0662,631.9639,a,1,[],[],[],[],[],[],[],0.2322,1,631.964,632.4644,,,,,,1037,MAS,AGR,150,coco,el,l,0.2322,,632.4645,632.4647,-0.038562335,-0.410119048,0,0,0,,0,233,233,136,1,,,,
,,,,,,d872a2c0dcf0a498b5e42410,66a626ef09d4e21e1a8894ec,6737680fcfadee3c453c0aff,2024-11-15_16h27.22.365,Tarea de género gramatical,2024.2.2,MacIntel,109.8901099,,,,,,,,,,,,,,,,,,,,,,,,632.4664,633.4558,l,1,[],[],[],[],[],[],[],0.3261,1,633.4561,633.9557,,,,,,1017,FEM,CON,150,raya,,a,0.3261,,633.9558,633.9559,-0.038562335,-0.410119048,0,0,0,,0,234,234,116,1,,,,
,,,,,,d872a2c0dcf0a498b5e42410,66a626ef09d4e21e1a8894ec,6737680fcfadee3c453c0aff,2024-11-15_16h27.22.365,Tarea de género gramatical,2024.2.2,MacIntel,109.8901099,,,,,,,,,,,,,,,,,,,,,,,,633.957,634.8974,a,0,[],[],[],[],[],[],[],0.2762,0,634.8984,635.3976,,,,,,1231,FEM,DIS,150,cárcel,el,a,0.2762,,635.3978,635.398,-0.038562335,-0.410119048,0,0,0,,0,235,235,330,1,,,,
,,,,,,d872a2c0dcf0a498b5e42410,66a626ef09d4e21e1a8894ec,6737680fcfadee3c453c0aff,2024-11-15_16h27.22.365,Tarea de género gramatical,2024.2.2,MacIntel,109.8901099,,,,,,,,,,,,,,,,,,,,,,,,635.4001,636.5972,l,1,[],[],[],[],[],[],[],0.5361,1,636.598,637.0973,,,,,,1251,FEM,CON,150,espada,,a,0.5361,,637.0986,637.0994,-0.038562335,-0.410119048,0,0,0,,0,236,236,350,1,,,,
,,,,,,d872a2c0dcf0a498b5e42410,66a626ef09d4e21e1a8894ec,6737680fcfadee3c453c0aff,2024-11-15_16h27.22.365,Tarea de género gramatical,2024.2.2,MacIntel,109.8901099,,,,,,,,,,,,,,,,,,,,,,,,637.1002,638.1302,a,1,[],[],[],[],[],[],[],0.3705,1,638.1303,638.6309,,,,,,1018,MAS,DIS,150,baúl,la,l,0.3705,,638.631,638.6311,-0.038562335,-0.410119048,0,0,0,,0,237,237,117,1,,,,
,,,,,,d872a2c0dcf0a498b5e42410,66a626ef09d4e21e1a8894ec,6737680fcfadee3c453c0aff,2024-11-15_16h27.22.365,Tarea de género gramatical,2024.2.2,MacIntel,109.8901099,,,,,,,,,,,,,,,,,,,,,,,,638.6331,639.7895,a,1,[],[],[],[],[],[],[],0.4939,1,639.7897,640.2887,,,,,,1349,MAS,AGR,150,payaso,el,l,0.4939,,640.2888,640.2888,-0.038562335,-0.410119048,0,0,0,,0,238,238,448,1,,,,
,,,,,,d872a2c0dcf0a498b5e42410,66a626ef09d4e21e1a8894ec,6737680fcfadee3c453c0aff,2024-11-15_16h27.22.365,Tarea de género gramatical,2024.2.2,MacIntel,109.8901099,,,,,,,,,,,,,,,,,,,,,,,,640.2898,641.2564,l,1,[],[],[],[],[],[],[],0.3034,1,641.2564,641.756,,,,,,1328,FEM,AGR,150,jugada,la,a,0.3034,,641.7561,641.7563,-0.038562335,-0.410119048,0,0,0,,0,239,239,427,1,,,,
,,,,,,d872a2c0dcf0a498b5e42410,66a626ef09d4e21e1a8894ec,6737680fcfadee3c453c0aff,2024-11-15_16h27.22.365,Tarea de género gramatical,2024.2.2,MacIntel,109.8901099,,,,,,,,,,,,,,,,,,,,,,,,641.7575,642.7223,l,1,[],[],[],[],[],[],[],0.2973,1,642.7223,643.2217,,,,,,1047,FEM,CON,150,grúa,,a,0.2973,,643.2236,643.2247,-0.038562335,-0.410119048,0,0,0,,0,240,240,146,1,,,,
,,,,,,d872a2c0dcf0a498b5e42410,66a626ef09d4e21e1a8894ec,6737680fcfadee3c453c0aff,2024-11-15_16h27.22.365,Tarea de género gramatical,2024.2.2,MacIntel,109.8901099,,,,,,,,,,,,,,,,,,,,,,,,643.2259,644.1056,l,1,[],[],[],[],[],[],[],0.2186,1,644.1056,644.6061,,,,,,926,FEM,AGR,150,pena,la,a,0.2186,,644.6063,644.6065,-0.038562335,-0.410119048,0,0,0,,0,241,241,25,1,,,,
,,,,,,d872a2c0dcf0a498b5e42410,66a626ef09d4e21e1a8894ec,6737680fcfadee3c453c0aff,2024-11-15_16h27.22.365,Tarea de género gramatical,2024.2.2,MacIntel,109.8901099,,,,,,,,,,,,,,,,,,,,,,,,644.6084,645.4806,l,1,[],[],[],[],[],[],[],0.2103,1,645.4807,645.98,,,,,,1237,FEM,DIS,150,escena,el,a,0.2103,,645.9801,645.9803,-0.038562335,-0.410119048,0,0,0,,0,242,242,336,1,,,,
,,,,,,d872a2c0dcf0a498b5e42410,66a626ef09d4e21e1a8894ec,6737680fcfadee3c453c0aff,2024-11-15_16h27.22.365,Tarea de género gramatical,2024.2.2,MacIntel,109.8901099,,,,,,,,,,,,,,,,,,,,,,,,645.9827,646.9546,a,1,[],[],[],[],[],[],[],0.3118,1,646.9546,647.4558,,,,,,1163,MAS,AGR,150,carro,el,l,0.3118,,647.456,647.4562,-0.038562335,-0.410119048,0,0,0,,0,243,243,262,1,,,,
,,,,,,d872a2c0dcf0a498b5e42410,66a626ef09d4e21e1a8894ec,6737680fcfadee3c453c0aff,2024-11-15_16h27.22.365,Tarea de género gramatical,2024.2.2,MacIntel,109.8901099,,,,,,,,,,,,,,,,,,,,,,,,647.458,648.439,l,1,[],[],[],[],[],[],[],0.3175,1,648.4391,648.9393,,,,,,1105,FEM,DIS,150,reina,el,a,0.3175,,648.9395,648.9396,-0.038562335,-0.410119048,0,0,0,,0,244,244,204,1,,,,
,,,,,,d872a2c0dcf0a498b5e42410,66a626ef09d4e21e1a8894ec,6737680fcfadee3c453c0aff,2024-11-15_16h27.22.365,Tarea de género gramatical,2024.2.2,MacIntel,109.8901099,,,,,,,,,,,,,,,,,,,,,,,,648.9419,649.9556,l,1,[],[],[],[],[],[],[],0.3521,1,649.9558,650.4553,,,,,,1190,FEM,AGR,150,cabra,la,a,0.3521,,650.4567,650.4576,-0.038562335,-0.410119048,0,0,0,,0,245,245,289,1,,,,
,,,,,,d872a2c0dcf0a498b5e42410,66a626ef09d4e21e1a8894ec,6737680fcfadee3c453c0aff,2024-11-15_16h27.22.365,Tarea de género gramatical,2024.2.2,MacIntel,109.8901099,,,,,,,,,,,,,,,,,,,,,,,,650.4583,651.4309,l,1,[],[],[],[],[],[],[],0.3071,1,651.4311,651.9311,,,,,,962,FEM,AGR,150,sopa,la,a,0.3071,,651.9313,651.9315,-0.038562335,-0.410119048,0,0,0,,0,246,246,61,1,,,,
,,,,,,d872a2c0dcf0a498b5e42410,66a626ef09d4e21e1a8894ec,6737680fcfadee3c453c0aff,2024-11-15_16h27.22.365,Tarea de género gramatical,2024.2.2,MacIntel,109.8901099,,,,,,,,,,,,,,,,,,,,,,,,651.9343,653.0722,a,1,[],[],[],[],[],[],[],0.476,1,653.0722,653.5727,,,,,,1330,MAS,DIS,150,título,la,l,0.476,,653.5728,653.5729,-0.038562335,-0.410119048,0,0,0,,0,247,247,429,1,,,,
