counterbalancing_condition,consent_prescreening.block_1/declare_consent,consent_prescreening.block_1/age_years,consent_prescreening.block_1/gender,consent_prescreening.block_1/language_disorder,consent_prescreening.block_1/first_language,PROLIFIC_PID,STUDY_ID,SESSION_ID,date,expName,psychopyVersion,OS,frameRate,check_prescreening_answers.started,check_prescreening_answers.stopped,Instructions.started,Instructions.stopped,instr_done_keyboard.keys,instr_done_keyboard.rt,instr_done_keyboard.duration,instr_done_touch.x,instr_done_touch.y,instr_done_touch.leftButton,instr_done_touch.midButton,instr_done_touch.rightButton,instruction_pages.thisRepN,instruction_pages.thisTrialN,instruction_pages.thisN,instruction_pages.thisIndex,instruction_pages.ran,pageN,phase,instruct_text,has_image,instruct_image,presentTrial.started,presentTrial.stopped,response.keys,response.corr,touch_resp.x,touch_resp.y,touch_resp.leftButton,touch_resp.midButton,touch_resp.rightButton,touch_resp.time,touch_resp.clicked_name,rt,corr,feedback.started,feedback.stopped,practice_trials.thisRepN,practice_trials.thisTrialN,practice_trials.thisN,practice_trials.thisIndex,practice_trials.ran,TrialID,StimulusType,Condition,PrimeDuration,Prime,Flanker,corrAns,response.rt,response.duration,Break.started,Break.stopped,break_done_touch.x,break_done_touch.y,break_done_touch.leftButton,break_done_touch.midButton,break_done_touch.rightButton,break_done_keyboard.keys,experiment_trials.thisRepN,experiment_trials.thisTrialN,experiment_trials.thisN,experiment_trials.thisIndex,experiment_trials.ran,break_done_keyboard.rt,break_done_keyboard.duration,End.started,End.stopped
1,"[""over_18"",""comfortable"",""read_info"",""consent_given""]",30,F,"[""none""]","[""spanish""]",dae4eb5d65c7263f0b2480aa,66a626ef09d4e21e1a8894ec,6734d68795d1280205f458cd,2024-11-13_10h41.41.942,Tarea de género gramatical,2024.2.2,Win32,60.24096386,,,,,,,,,,,,,,,,,,,,,,,,,,,,,,,,,,,,,,,,,,,,,,,,,,,,,,,,,,,,,,,,,,,,
,,,,,,dae4eb5d65c7263f0b2480aa,66a626ef09d4e21e1a8894ec,6734d68795d1280205f458cd,2024-11-13_10h41.41.942,Tarea de género gramatical,2024.2.2,Win32,60.24096386,22.0201,22.0206,,,,,,,,,,,,,,,,,,,,,,,,,,,,,,,,,,,,,,,,,,,,,,,,,,,,,,,,,,,,,,,,,,
,,,,,,dae4eb5d65c7263f0b2480aa,66a626ef09d4e21e1a8894ec,6734d68795d1280205f458cd,2024-11-13_10h41.41.942,Tarea de género gramatical,2024.2.2,Win32,60.24096386,,,22.0887,33.1163,space,10.9593,,-0.888888889,0.5,0,0,0,0,0,0,0,1,1,instructions,"INSTRUCCIONES
Va a realizar una prueba de selección gramatical. Desde el comienzo de la prueba mire siempre al centro de la pantalla. Al cabo de un momento, aparecerán palabras. La tarea consiste en determinar si la palabra del centro (siempre será un sustantivo), pertenece al género masculino o femenino.

Pulse la tecla ESPACIO o toque el botón de abajo para continuar.",0,keyboardresponseMF.png,,,,,,,,,,,,,,,,,,,,,,,,,,,,,,,,,,,,,,,,,,,,,,
,,,,,,dae4eb5d65c7263f0b2480aa,66a626ef09d4e21e1a8894ec,6734d68795d1280205f458cd,2024-11-13_10h41.41.942,Tarea de género gramatical,2024.2.2,Win32,60.24096386,,,33.1308,51.5586,space,18.3453,,-0.888888889,0.5,0,0,0,0,1,1,1,1,2,instructions,"Si su dispositivo tiene teclado, pulse la tecla ""A"" para las palabras en masculino (por ejemplo: ""arroz"") y la tecla ""L"" para las palabras en femenino (por ejemplo: ""mano"").
Pulse la tecla ESPACIO o toque el botón de abajo para continuar.",1,keyboardresponseMF.png,,,,,,,,,,,,,,,,,,,,,,,,,,,,,,,,,,,,,,,,,,,,,,
,,,,,,dae4eb5d65c7263f0b2480aa,66a626ef09d4e21e1a8894ec,6734d68795d1280205f458cd,2024-11-13_10h41.41.942,Tarea de género gramatical,2024.2.2,Win32,60.24096386,,,51.5668,56.4909,space,4.8533,,-0.888888889,0.5,0,0,0,0,2,2,2,1,3,instructions,"Si utiliza un dispositivo sólo táctil, colóquelo en horizontal y utilice los botones de la pantalla. No utilice el ratón.
Pulse la tecla ESPACIO o toque el botón de abajo para continuar.",2,touchresponseMF.png,,,,,,,,,,,,,,,,,,,,,,,,,,,,,,,,,,,,,,,,,,,,,,
,,,,,,dae4eb5d65c7263f0b2480aa,66a626ef09d4e21e1a8894ec,6734d68795d1280205f458cd,2024-11-13_10h41.41.942,Tarea de género gramatical,2024.2.2,Win32,60.24096386,,,56.5015,66.4502,space,9.9269,,-0.888888889,0.5,0,0,0,0,3,3,3,1,4,instructions,"Es muy importante que responda con la mayor rapidez y precisión posibles, ya que cada cadena de letras sólo estará en pantalla durante un instante. Si no responde en ese tiempo, aparecerá el mensaje ""Muy lento"" y el experimento pasará a la siguiente palabra. Los primeros 15 intentos serán de práctica y habrá dos descansos durante la prueba.
Pulse la tecla ESPACIO o toque el botón de abajo para iniciar la parte de práctica.",0,keyboardresponseMF.png,,,,,,,,,,,,,,,,,,,,,,,,,,,,,,,,,,,,,,,,,,,,,,
,,,,,,dae4eb5d65c7263f0b2480aa,66a626ef09d4e21e1a8894ec,6734d68795d1280205f458cd,2024-11-13_10h41.41.942,Tarea de género gramatical,2024.2.2,Win32,60.24096386,,,,,,,,,,,,,,,,,,,,,,,66.4955,69.1418,,0,[],[],[],[],[],[],[],,-1,69.1423,69.6424,0,0,0,4,1,2005,FEM,CON,150,placa,,a,,,,,,,,,,,,,,,,,,,
,,,,,,dae4eb5d65c7263f0b2480aa,66a626ef09d4e21e1a8894ec,6734d68795d1280205f458cd,2024-11-13_10h41.41.942,Tarea de género gramatical,2024.2.2,Win32,60.24096386,,,,,,,,,,,,,,,,,,,,,,,69.6484,71.5246,l,1,[],[],[],[],[],[],[],1.2001,1,71.553,72.0281,0,1,1,0,1,2001,FEM,AGR,150,nuca,la,a,1.2001,,,,,,,,,,,,,,,,,,
,,,,,,dae4eb5d65c7263f0b2480aa,66a626ef09d4e21e1a8894ec,6734d68795d1280205f458cd,2024-11-13_10h41.41.942,Tarea de género gramatical,2024.2.2,Win32,60.24096386,,,,,,,,,,,,,,,,,,,,,,,72.0328,73.2311,a,1,[],[],[],[],[],[],[],0.5339,1,73.2312,73.7231,0,2,2,9,1,2010,MAS,AGR,150,vecino,el,l,0.5339,,,,,,,,,,,,,,,,,,
,,,,,,dae4eb5d65c7263f0b2480aa,66a626ef09d4e21e1a8894ec,6734d68795d1280205f458cd,2024-11-13_10h41.41.942,Tarea de género gramatical,2024.2.2,Win32,60.24096386,,,,,,,,,,,,,,,,,,,,,,,73.7283,75.2626,a,0,[],[],[],[],[],[],[],0.8756,0,75.264,75.7596,0,3,3,5,1,2006,FEM,DIS,150,serie,el,a,0.8756,,,,,,,,,,,,,,,,,,
,,,,,,dae4eb5d65c7263f0b2480aa,66a626ef09d4e21e1a8894ec,6734d68795d1280205f458cd,2024-11-13_10h41.41.942,Tarea de género gramatical,2024.2.2,Win32,60.24096386,,,,,,,,,,,,,,,,,,,,,,,75.7615,77.1623,l,1,[],[],[],[],[],[],[],0.7273,1,77.1634,77.6612,0,4,4,7,1,2008,FEM,CON,150,siesta,,a,0.7273,,,,,,,,,,,,,,,,,,
,,,,,,dae4eb5d65c7263f0b2480aa,66a626ef09d4e21e1a8894ec,6734d68795d1280205f458cd,2024-11-13_10h41.41.942,Tarea de género gramatical,2024.2.2,Win32,60.24096386,,,,,,,,,,,,,,,,,,,,,,,77.6629,78.8601,l,1,[],[],[],[],[],[],[],0.5314,1,78.8604,79.3606,0,5,5,6,1,2007,FEM,AGR,150,navaja,la,a,0.5314,,,,,,,,,,,,,,,,,,
,,,,,,dae4eb5d65c7263f0b2480aa,66a626ef09d4e21e1a8894ec,6734d68795d1280205f458cd,2024-11-13_10h41.41.942,Tarea de género gramatical,2024.2.2,Win32,60.24096386,,,,,,,,,,,,,,,,,,,,,,,79.3621,80.4688,l,1,[],[],[],[],[],[],[],0.4229,1,80.4689,80.9569,0,6,6,3,1,2004,FEM,AGR,150,venta,la,a,0.4229,,,,,,,,,,,,,,,,,,
,,,,,,dae4eb5d65c7263f0b2480aa,66a626ef09d4e21e1a8894ec,6734d68795d1280205f458cd,2024-11-13_10h41.41.942,Tarea de género gramatical,2024.2.2,Win32,60.24096386,,,,,,,,,,,,,,,,,,,,,,,80.9583,82.2446,a,1,[],[],[],[],[],[],[],0.6182,1,82.2448,82.7417,0,7,7,12,1,2013,MAS,AGR,150,acero,el,l,0.6182,,,,,,,,,,,,,,,,,,
,,,,,,dae4eb5d65c7263f0b2480aa,66a626ef09d4e21e1a8894ec,6734d68795d1280205f458cd,2024-11-13_10h41.41.942,Tarea de género gramatical,2024.2.2,Win32,60.24096386,,,,,,,,,,,,,,,,,,,,,,,82.7434,83.8599,a,1,[],[],[],[],[],[],[],0.4341,1,83.8602,84.3591,0,8,8,13,1,2014,MAS,CON,150,siglo,,l,0.4341,,,,,,,,,,,,,,,,,,
,,,,,,dae4eb5d65c7263f0b2480aa,66a626ef09d4e21e1a8894ec,6734d68795d1280205f458cd,2024-11-13_10h41.41.942,Tarea de género gramatical,2024.2.2,Win32,60.24096386,,,,,,,,,,,,,,,,,,,,,,,84.3609,85.4595,l,1,[],[],[],[],[],[],[],0.4282,1,85.4598,85.9549,0,9,9,1,1,2002,FEM,CON,150,pala,,a,0.4282,,,,,,,,,,,,,,,,,,
,,,,,,dae4eb5d65c7263f0b2480aa,66a626ef09d4e21e1a8894ec,6734d68795d1280205f458cd,2024-11-13_10h41.41.942,Tarea de género gramatical,2024.2.2,Win32,60.24096386,,,,,,,,,,,,,,,,,,,,,,,85.957,87.3748,l,1,[],[],[],[],[],[],[],0.7513,1,87.3751,87.8741,0,10,10,2,1,2003,FEM,DIS,150,daga,el,a,0.7513,,,,,,,,,,,,,,,,,,
,,,,,,dae4eb5d65c7263f0b2480aa,66a626ef09d4e21e1a8894ec,6734d68795d1280205f458cd,2024-11-13_10h41.41.942,Tarea de género gramatical,2024.2.2,Win32,60.24096386,,,,,,,,,,,,,,,,,,,,,,,87.877,89.3984,a,1,[],[],[],[],[],[],[],0.8406,1,89.399,89.8889,0,11,11,11,1,2012,MAS,DIS,150,clima,la,l,0.8406,,,,,,,,,,,,,,,,,,
,,,,,,dae4eb5d65c7263f0b2480aa,66a626ef09d4e21e1a8894ec,6734d68795d1280205f458cd,2024-11-13_10h41.41.942,Tarea de género gramatical,2024.2.2,Win32,60.24096386,,,,,,,,,,,,,,,,,,,,,,,89.8915,91.1863,a,1,[],[],[],[],[],[],[],0.63,1,91.1866,91.6827,0,12,12,14,1,2015,MAS,DIS,150,robot,la,l,0.63,,,,,,,,,,,,,,,,,,
,,,,,,dae4eb5d65c7263f0b2480aa,66a626ef09d4e21e1a8894ec,6734d68795d1280205f458cd,2024-11-13_10h41.41.942,Tarea de género gramatical,2024.2.2,Win32,60.24096386,,,,,,,,,,,,,,,,,,,,,,,91.686,92.8565,a,1,[],[],[],[],[],[],[],0.4853,1,92.8567,93.354,0,13,13,8,1,2009,MAS,DIS,150,puerto,la,l,0.4853,,,,,,,,,,,,,,,,,,
,,,,,,dae4eb5d65c7263f0b2480aa,66a626ef09d4e21e1a8894ec,6734d68795d1280205f458cd,2024-11-13_10h41.41.942,Tarea de género gramatical,2024.2.2,Win32,60.24096386,,,,,,,,,,,,,,,,,,,,,,,93.3551,94.6886,a,1,[],[],[],[],[],[],[],0.6513,1,94.6889,95.1872,0,14,14,10,1,2011,MAS,CON,150,canal,,l,0.6513,,,,,,,,,,,,,,,,,,
,,,,,,dae4eb5d65c7263f0b2480aa,66a626ef09d4e21e1a8894ec,6734d68795d1280205f458cd,2024-11-13_10h41.41.942,Tarea de género gramatical,2024.2.2,Win32,60.24096386,,,193.9272,199.0257,space,5.0806,,-0.870370369,-0.482407464,0,0,0,,,,,,,,,,,199.1762,200.3486,l,1,[],[],[],[],[],[],[],0.5061,1,200.3492,200.8488,,,,,,733,FEM,CON,150,pluma,,a,0.5061,,200.85,200.8597,-0.870370369,-0.482407464,0,0,0,,0,0,0,282,1,,,,
,,,,,,dae4eb5d65c7263f0b2480aa,66a626ef09d4e21e1a8894ec,6734d68795d1280205f458cd,2024-11-13_10h41.41.942,Tarea de género gramatical,2024.2.2,Win32,60.24096386,,,,,,,,,,,,,,,,,,,,,,,200.862,201.9894,a,1,[],[],[],[],[],[],[],0.4535,1,201.9895,202.4809,,,,,,852,MAS,AGR,150,ladrón,el,l,0.4535,,202.4811,202.4824,-0.870370369,-0.482407464,0,0,0,,0,1,1,401,1,,,,
,,,,,,dae4eb5d65c7263f0b2480aa,66a626ef09d4e21e1a8894ec,6734d68795d1280205f458cd,2024-11-13_10h41.41.942,Tarea de género gramatical,2024.2.2,Win32,60.24096386,,,,,,,,,,,,,,,,,,,,,,,202.4857,203.5393,l,1,[],[],[],[],[],[],[],0.3846,1,203.5394,204.0309,,,,,,632,FEM,DIS,150,prisa,el,a,0.3846,,204.0362,204.0382,-0.870370369,-0.482407464,0,0,0,,0,2,2,181,1,,,,
,,,,,,dae4eb5d65c7263f0b2480aa,66a626ef09d4e21e1a8894ec,6734d68795d1280205f458cd,2024-11-13_10h41.41.942,Tarea de género gramatical,2024.2.2,Win32,60.24096386,,,,,,,,,,,,,,,,,,,,,,,204.0409,205.1554,a,1,[],[],[],[],[],[],[],0.4436,1,205.1557,205.6537,,,,,,515,MAS,DIS,150,rayo,la,l,0.4436,,205.6538,205.6543,-0.870370369,-0.482407464,0,0,0,,0,3,3,64,1,,,,
,,,,,,dae4eb5d65c7263f0b2480aa,66a626ef09d4e21e1a8894ec,6734d68795d1280205f458cd,2024-11-13_10h41.41.942,Tarea de género gramatical,2024.2.2,Win32,60.24096386,,,,,,,,,,,,,,,,,,,,,,,205.6565,206.7168,l,1,[],[],[],[],[],[],[],0.3896,1,206.7172,207.2197,,,,,,543,FEM,AGR,150,lata,la,a,0.3896,,207.2198,207.22,-0.870370369,-0.482407464,0,0,0,,0,4,4,92,1,,,,
,,,,,,dae4eb5d65c7263f0b2480aa,66a626ef09d4e21e1a8894ec,6734d68795d1280205f458cd,2024-11-13_10h41.41.942,Tarea de género gramatical,2024.2.2,Win32,60.24096386,,,,,,,,,,,,,,,,,,,,,,,207.2216,208.2363,l,1,[],[],[],[],[],[],[],0.3339,1,208.2364,208.7293,,,,,,693,FEM,AGR,150,salsa,la,a,0.3339,,208.73,208.7318,-0.870370369,-0.482407464,0,0,0,,0,5,5,242,1,,,,
,,,,,,dae4eb5d65c7263f0b2480aa,66a626ef09d4e21e1a8894ec,6734d68795d1280205f458cd,2024-11-13_10h41.41.942,Tarea de género gramatical,2024.2.2,Win32,60.24096386,,,,,,,,,,,,,,,,,,,,,,,208.7333,209.8199,l,1,[],[],[],[],[],[],[],0.4038,1,209.82,210.3146,,,,,,607,FEM,CON,150,madre,,a,0.4038,,210.3212,210.3236,-0.870370369,-0.482407464,0,0,0,,0,6,6,156,1,,,,
,,,,,,dae4eb5d65c7263f0b2480aa,66a626ef09d4e21e1a8894ec,6734d68795d1280205f458cd,2024-11-13_10h41.41.942,Tarea de género gramatical,2024.2.2,Win32,60.24096386,,,,,,,,,,,,,,,,,,,,,,,210.326,211.3371,l,1,[],[],[],[],[],[],[],0.335,1,211.3374,211.8332,,,,,,794,FEM,DIS,150,pareja,el,a,0.335,,211.8333,211.8334,-0.870370369,-0.482407464,0,0,0,,0,7,7,343,1,,,,
,,,,,,dae4eb5d65c7263f0b2480aa,66a626ef09d4e21e1a8894ec,6734d68795d1280205f458cd,2024-11-13_10h41.41.942,Tarea de género gramatical,2024.2.2,Win32,60.24096386,,,,,,,,,,,,,,,,,,,,,,,211.8346,212.8363,l,1,[],[],[],[],[],[],[],0.3347,1,212.8366,213.3258,,,,,,579,FEM,AGR,150,rana,la,a,0.3347,,213.3259,213.3264,-0.870370369,-0.482407464,0,0,0,,0,8,8,128,1,,,,
,,,,,,dae4eb5d65c7263f0b2480aa,66a626ef09d4e21e1a8894ec,6734d68795d1280205f458cd,2024-11-13_10h41.41.942,Tarea de género gramatical,2024.2.2,Win32,60.24096386,,,,,,,,,,,,,,,,,,,,,,,213.3302,214.293,l,1,[],[],[],[],[],[],[],0.2976,1,214.294,214.8007,,,,,,577,FEM,CON,150,cuna,,a,0.2976,,214.8009,214.8016,-0.870370369,-0.482407464,0,0,0,,0,9,9,126,1,,,,
,,,,,,dae4eb5d65c7263f0b2480aa,66a626ef09d4e21e1a8894ec,6734d68795d1280205f458cd,2024-11-13_10h41.41.942,Tarea de género gramatical,2024.2.2,Win32,60.24096386,,,,,,,,,,,,,,,,,,,,,,,214.8056,215.7509,l,1,[],[],[],[],[],[],[],0.2704,1,215.751,216.245,,,,,,469,FEM,CON,150,niña,,a,0.2704,,216.2451,216.2457,-0.870370369,-0.482407464,0,0,0,,0,10,10,18,1,,,,
,,,,,,dae4eb5d65c7263f0b2480aa,66a626ef09d4e21e1a8894ec,6734d68795d1280205f458cd,2024-11-13_10h41.41.942,Tarea de género gramatical,2024.2.2,Win32,60.24096386,,,,,,,,,,,,,,,,,,,,,,,216.248,217.3185,l,1,[],[],[],[],[],[],[],0.4121,1,217.3188,217.8072,,,,,,847,FEM,CON,150,cuerda,,a,0.4121,,217.812,217.8131,-0.870370369,-0.482407464,0,0,0,,0,11,11,396,1,,,,
,,,,,,dae4eb5d65c7263f0b2480aa,66a626ef09d4e21e1a8894ec,6734d68795d1280205f458cd,2024-11-13_10h41.41.942,Tarea de género gramatical,2024.2.2,Win32,60.24096386,,,,,,,,,,,,,,,,,,,,,,,217.8143,218.8461,a,1,[],[],[],[],[],[],[],0.3755,1,218.8463,219.3493,,,,,,844,MAS,CON,150,examen,,l,0.3755,,219.3495,219.3499,-0.870370369,-0.482407464,0,0,0,,0,12,12,393,1,,,,
,,,,,,dae4eb5d65c7263f0b2480aa,66a626ef09d4e21e1a8894ec,6734d68795d1280205f458cd,2024-11-13_10h41.41.942,Tarea de género gramatical,2024.2.2,Win32,60.24096386,,,,,,,,,,,,,,,,,,,,,,,219.352,220.2896,a,1,[],[],[],[],[],[],[],0.2581,1,220.2902,220.7812,,,,,,796,MAS,CON,150,juicio,,l,0.2581,,220.7814,220.7817,-0.870370369,-0.482407464,0,0,0,,0,13,13,345,1,,,,
,,,,,,dae4eb5d65c7263f0b2480aa,66a626ef09d4e21e1a8894ec,6734d68795d1280205f458cd,2024-11-13_10h41.41.942,Tarea de género gramatical,2024.2.2,Win32,60.24096386,,,,,,,,,,,,,,,,,,,,,,,220.7855,221.8317,l,1,[],[],[],[],[],[],[],0.3684,1,221.8319,222.3294,,,,,,861,FEM,AGR,150,actriz,la,a,0.3684,,222.3295,222.3297,-0.870370369,-0.482407464,0,0,0,,0,14,14,410,1,,,,
,,,,,,dae4eb5d65c7263f0b2480aa,66a626ef09d4e21e1a8894ec,6734d68795d1280205f458cd,2024-11-13_10h41.41.942,Tarea de género gramatical,2024.2.2,Win32,60.24096386,,,,,,,,,,,,,,,,,,,,,,,222.3312,223.3556,l,1,[],[],[],[],[],[],[],0.3469,1,223.3564,223.8449,,,,,,655,FEM,CON,150,reina,,a,0.3469,,223.8472,223.8482,-0.870370369,-0.482407464,0,0,0,,0,15,15,204,1,,,,
,,,,,,dae4eb5d65c7263f0b2480aa,66a626ef09d4e21e1a8894ec,6734d68795d1280205f458cd,2024-11-13_10h41.41.942,Tarea de género gramatical,2024.2.2,Win32,60.24096386,,,,,,,,,,,,,,,,,,,,,,,223.8495,224.8135,l,1,[],[],[],[],[],[],[],0.2944,1,224.8137,225.3109,,,,,,537,FEM,AGR,150,risa,la,a,0.2944,,225.311,225.3112,-0.870370369,-0.482407464,0,0,0,,0,16,16,86,1,,,,
,,,,,,dae4eb5d65c7263f0b2480aa,66a626ef09d4e21e1a8894ec,6734d68795d1280205f458cd,2024-11-13_10h41.41.942,Tarea de género gramatical,2024.2.2,Win32,60.24096386,,,,,,,,,,,,,,,,,,,,,,,225.3135,226.2454,l,1,[],[],[],[],[],[],[],0.2606,1,226.2455,226.7404,,,,,,458,FEM,DIS,150,idea,el,a,0.2606,,226.7405,226.7406,-0.870370369,-0.482407464,0,0,0,,0,17,17,7,1,,,,
,,,,,,dae4eb5d65c7263f0b2480aa,66a626ef09d4e21e1a8894ec,6734d68795d1280205f458cd,2024-11-13_10h41.41.942,Tarea de género gramatical,2024.2.2,Win32,60.24096386,,,,,,,,,,,,,,,,,,,,,,,226.7419,227.6618,a,1,[],[],[],[],[],[],[],0.2531,1,227.662,228.159,,,,,,708,MAS,AGR,150,polvo,el,l,0.2531,,228.1592,228.1596,-0.870370369,-0.482407464,0,0,0,,0,18,18,257,1,,,,
,,,,,,dae4eb5d65c7263f0b2480aa,66a626ef09d4e21e1a8894ec,6734d68795d1280205f458cd,2024-11-13_10h41.41.942,Tarea de género gramatical,2024.2.2,Win32,60.24096386,,,,,,,,,,,,,,,,,,,,,,,228.163,229.1117,a,1,[],[],[],[],[],[],[],0.2787,1,229.1119,229.6023,,,,,,814,MAS,CON,150,viento,,l,0.2787,,229.6026,229.6033,-0.870370369,-0.482407464,0,0,0,,0,19,19,363,1,,,,
,,,,,,dae4eb5d65c7263f0b2480aa,66a626ef09d4e21e1a8894ec,6734d68795d1280205f458cd,2024-11-13_10h41.41.942,Tarea de género gramatical,2024.2.2,Win32,60.24096386,,,,,,,,,,,,,,,,,,,,,,,229.6081,230.5781,l,1,[],[],[],[],[],[],[],0.2941,1,230.5783,231.0693,,,,,,765,FEM,AGR,150,manera,la,a,0.2941,,231.0754,231.0777,-0.870370369,-0.482407464,0,0,0,,0,20,20,314,1,,,,
,,,,,,dae4eb5d65c7263f0b2480aa,66a626ef09d4e21e1a8894ec,6734d68795d1280205f458cd,2024-11-13_10h41.41.942,Tarea de género gramatical,2024.2.2,Win32,60.24096386,,,,,,,,,,,,,,,,,,,,,,,231.08,232.1276,a,1,[],[],[],[],[],[],[],0.3687,1,232.1278,232.6169,,,,,,828,MAS,AGR,150,pastel,el,l,0.3687,,232.6174,232.6184,-0.870370369,-0.482407464,0,0,0,,0,21,21,377,1,,,,
,,,,,,dae4eb5d65c7263f0b2480aa,66a626ef09d4e21e1a8894ec,6734d68795d1280205f458cd,2024-11-13_10h41.41.942,Tarea de género gramatical,2024.2.2,Win32,60.24096386,,,,,,,,,,,,,,,,,,,,,,,232.6227,233.67,a,0,[],[],[],[],[],[],[],0.3599,0,233.6721,234.1666,,,,,,651,FEM,AGR,150,leche,la,a,0.3599,,234.1672,234.1681,-0.870370369,-0.482407464,0,0,0,,0,22,22,200,1,,,,
,,,,,,dae4eb5d65c7263f0b2480aa,66a626ef09d4e21e1a8894ec,6734d68795d1280205f458cd,2024-11-13_10h41.41.942,Tarea de género gramatical,2024.2.2,Win32,60.24096386,,,,,,,,,,,,,,,,,,,,,,,234.1717,235.2746,a,1,[],[],[],[],[],[],[],0.4339,1,235.2763,235.7731,,,,,,881,MAS,DIS,150,veneno,la,l,0.4339,,235.7731,235.7734,-0.870370369,-0.482407464,0,0,0,,0,23,23,430,1,,,,
,,,,,,dae4eb5d65c7263f0b2480aa,66a626ef09d4e21e1a8894ec,6734d68795d1280205f458cd,2024-11-13_10h41.41.942,Tarea de género gramatical,2024.2.2,Win32,60.24096386,,,,,,,,,,,,,,,,,,,,,,,235.7751,236.8224,l,1,[],[],[],[],[],[],[],0.3657,1,236.8226,237.3148,,,,,,758,FEM,DIS,150,semana,el,a,0.3657,,237.3199,237.3211,-0.870370369,-0.482407464,0,0,0,,0,24,24,307,1,,,,
,,,,,,dae4eb5d65c7263f0b2480aa,66a626ef09d4e21e1a8894ec,6734d68795d1280205f458cd,2024-11-13_10h41.41.942,Tarea de género gramatical,2024.2.2,Win32,60.24096386,,,,,,,,,,,,,,,,,,,,,,,237.3227,238.5484,l,1,[],[],[],[],[],[],[],0.5535,1,238.5487,239.0483,,,,,,879,FEM,AGR,150,fianza,la,a,0.5535,,239.0485,239.0489,-0.870370369,-0.482407464,0,0,0,,0,25,25,428,1,,,,
,,,,,,dae4eb5d65c7263f0b2480aa,66a626ef09d4e21e1a8894ec,6734d68795d1280205f458cd,2024-11-13_10h41.41.942,Tarea de género gramatical,2024.2.2,Win32,60.24096386,,,,,,,,,,,,,,,,,,,,,,,239.0546,240.1983,a,1,[],[],[],[],[],[],[],0.4689,1,240.1987,240.6979,,,,,,532,MAS,CON,150,tubo,,l,0.4689,,240.698,240.6984,-0.870370369,-0.482407464,0,0,0,,0,26,26,81,1,,,,
,,,,,,dae4eb5d65c7263f0b2480aa,66a626ef09d4e21e1a8894ec,6734d68795d1280205f458cd,2024-11-13_10h41.41.942,Tarea de género gramatical,2024.2.2,Win32,60.24096386,,,,,,,,,,,,,,,,,,,,,,,240.7033,241.8308,a,1,[],[],[],[],[],[],[],0.4512,1,241.831,242.3304,,,,,,504,MAS,AGR,150,humo,el,l,0.4512,,242.3306,242.3309,-0.870370369,-0.482407464,0,0,0,,0,27,27,53,1,,,,
,,,,,,dae4eb5d65c7263f0b2480aa,66a626ef09d4e21e1a8894ec,6734d68795d1280205f458cd,2024-11-13_10h41.41.942,Tarea de género gramatical,2024.2.2,Win32,60.24096386,,,,,,,,,,,,,,,,,,,,,,,242.3359,243.5303,l,1,[],[],[],[],[],[],[],0.5178,1,243.5307,244.0286,,,,,,649,FEM,CON,150,nariz,,a,0.5178,,244.0287,244.029,-0.870370369,-0.482407464,0,0,0,,0,28,28,198,1,,,,
,,,,,,dae4eb5d65c7263f0b2480aa,66a626ef09d4e21e1a8894ec,6734d68795d1280205f458cd,2024-11-13_10h41.41.942,Tarea de género gramatical,2024.2.2,Win32,60.24096386,,,,,,,,,,,,,,,,,,,,,,,244.0338,245.046,l,1,[],[],[],[],[],[],[],0.3345,1,245.0462,245.5459,,,,,,746,FEM,DIS,150,feria,el,a,0.3345,,245.5518,245.5541,-0.870370369,-0.482407464,0,0,0,,0,29,29,295,1,,,,
,,,,,,dae4eb5d65c7263f0b2480aa,66a626ef09d4e21e1a8894ec,6734d68795d1280205f458cd,2024-11-13_10h41.41.942,Tarea de género gramatical,2024.2.2,Win32,60.24096386,,,,,,,,,,,,,,,,,,,,,,,245.5563,246.5622,a,1,[],[],[],[],[],[],[],0.3398,1,246.5626,247.0608,,,,,,468,MAS,AGR,150,tren,el,l,0.3398,,247.0609,247.0611,-0.870370369,-0.482407464,0,0,0,,0,30,30,17,1,,,,
,,,,,,dae4eb5d65c7263f0b2480aa,66a626ef09d4e21e1a8894ec,6734d68795d1280205f458cd,2024-11-13_10h41.41.942,Tarea de género gramatical,2024.2.2,Win32,60.24096386,,,,,,,,,,,,,,,,,,,,,,,247.0654,248.128,a,1,[],[],[],[],[],[],[],0.3851,1,248.1283,248.6265,,,,,,491,MAS,DIS,150,bote,la,l,0.3851,,248.6266,248.6266,-0.870370369,-0.482407464,0,0,0,,0,31,31,40,1,,,,
,,,,,,dae4eb5d65c7263f0b2480aa,66a626ef09d4e21e1a8894ec,6734d68795d1280205f458cd,2024-11-13_10h41.41.942,Tarea de género gramatical,2024.2.2,Win32,60.24096386,,,,,,,,,,,,,,,,,,,,,,,248.6315,249.6934,l,1,[],[],[],[],[],[],[],0.3883,1,249.6936,250.1932,,,,,,524,FEM,DIS,150,flor,el,a,0.3883,,250.1934,250.1936,-0.870370369,-0.482407464,0,0,0,,0,32,32,73,1,,,,
,,,,,,dae4eb5d65c7263f0b2480aa,66a626ef09d4e21e1a8894ec,6734d68795d1280205f458cd,2024-11-13_10h41.41.942,Tarea de género gramatical,2024.2.2,Win32,60.24096386,,,,,,,,,,,,,,,,,,,,,,,250.1977,251.2764,a,1,[],[],[],[],[],[],[],0.4017,1,251.2767,251.7757,,,,,,892,MAS,CON,150,cuadro,,l,0.4017,,251.7804,251.7816,-0.870370369,-0.482407464,0,0,0,,0,33,33,441,1,,,,
,,,,,,dae4eb5d65c7263f0b2480aa,66a626ef09d4e21e1a8894ec,6734d68795d1280205f458cd,2024-11-13_10h41.41.942,Tarea de género gramatical,2024.2.2,Win32,60.24096386,,,,,,,,,,,,,,,,,,,,,,,251.7832,252.8924,a,1,[],[],[],[],[],[],[],0.4338,1,252.8926,253.3915,,,,,,654,MAS,AGR,150,papel,el,l,0.4338,,253.3916,253.3917,-0.870370369,-0.482407464,0,0,0,,0,34,34,203,1,,,,
,,,,,,dae4eb5d65c7263f0b2480aa,66a626ef09d4e21e1a8894ec,6734d68795d1280205f458cd,2024-11-13_10h41.41.942,Tarea de género gramatical,2024.2.2,Win32,60.24096386,,,,,,,,,,,,,,,,,,,,,,,253.3933,254.3913,l,1,[],[],[],[],[],[],[],0.3207,1,254.3915,254.8908,,,,,,855,FEM,AGR,150,parada,la,a,0.3207,,254.8909,254.8911,-0.870370369,-0.482407464,0,0,0,,0,35,35,404,1,,,,
,,,,,,dae4eb5d65c7263f0b2480aa,66a626ef09d4e21e1a8894ec,6734d68795d1280205f458cd,2024-11-13_10h41.41.942,Tarea de género gramatical,2024.2.2,Win32,60.24096386,,,,,,,,,,,,,,,,,,,,,,,254.8956,255.9077,a,1,[],[],[],[],[],[],[],0.3358,1,255.9079,256.4068,,,,,,713,MAS,DIS,150,carro,la,l,0.3358,,256.407,256.4073,-0.870370369,-0.482407464,0,0,0,,0,36,36,262,1,,,,
,,,,,,dae4eb5d65c7263f0b2480aa,66a626ef09d4e21e1a8894ec,6734d68795d1280205f458cd,2024-11-13_10h41.41.942,Tarea de género gramatical,2024.2.2,Win32,60.24096386,,,,,,,,,,,,,,,,,,,,,,,256.4127,257.607,a,1,[],[],[],[],[],[],[],0.5193,1,257.6072,258.1061,,,,,,574,MAS,CON,150,clan,,l,0.5193,,258.1062,258.1066,-0.870370369,-0.482407464,0,0,0,,0,37,37,123,1,,,,
,,,,,,dae4eb5d65c7263f0b2480aa,66a626ef09d4e21e1a8894ec,6734d68795d1280205f458cd,2024-11-13_10h41.41.942,Tarea de género gramatical,2024.2.2,Win32,60.24096386,,,,,,,,,,,,,,,,,,,,,,,258.112,259.0392,l,1,[],[],[],[],[],[],[],0.2528,1,259.0395,259.5385,,,,,,789,FEM,AGR,150,salida,la,a,0.2528,,259.5448,259.5467,-0.870370369,-0.482407464,0,0,0,,0,38,38,338,1,,,,
,,,,,,dae4eb5d65c7263f0b2480aa,66a626ef09d4e21e1a8894ec,6734d68795d1280205f458cd,2024-11-13_10h41.41.942,Tarea de género gramatical,2024.2.2,Win32,60.24096386,,,,,,,,,,,,,,,,,,,,,,,259.5485,260.5888,a,1,[],[],[],[],[],[],[],0.3684,1,260.5891,261.0882,,,,,,520,MAS,CON,150,palo,,l,0.3684,,261.0882,261.0884,-0.870370369,-0.482407464,0,0,0,,0,39,39,69,1,,,,
,,,,,,dae4eb5d65c7263f0b2480aa,66a626ef09d4e21e1a8894ec,6734d68795d1280205f458cd,2024-11-13_10h41.41.942,Tarea de género gramatical,2024.2.2,Win32,60.24096386,,,,,,,,,,,,,,,,,,,,,,,261.0923,262.0559,a,1,[],[],[],[],[],[],[],0.2915,1,262.057,262.5538,,,,,,670,MAS,CON,150,huevo,,l,0.2915,,262.554,262.5542,-0.870370369,-0.482407464,0,0,0,,0,40,40,219,1,,,,
,,,,,,dae4eb5d65c7263f0b2480aa,66a626ef09d4e21e1a8894ec,6734d68795d1280205f458cd,2024-11-13_10h41.41.942,Tarea de género gramatical,2024.2.2,Win32,60.24096386,,,,,,,,,,,,,,,,,,,,,,,262.5586,263.5714,l,1,[],[],[],[],[],[],[],0.3361,1,263.5716,264.0696,,,,,,728,FEM,DIS,150,presa,el,a,0.3361,,264.0698,264.0701,-0.870370369,-0.482407464,0,0,0,,0,41,41,277,1,,,,
,,,,,,dae4eb5d65c7263f0b2480aa,66a626ef09d4e21e1a8894ec,6734d68795d1280205f458cd,2024-11-13_10h41.41.942,Tarea de género gramatical,2024.2.2,Win32,60.24096386,,,,,,,,,,,,,,,,,,,,,,,264.0751,265.27,l,1,[],[],[],[],[],[],[],0.5179,1,265.2703,265.7686,,,,,,644,FEM,DIS,150,banda,el,a,0.5179,,265.7733,265.7744,-0.870370369,-0.482407464,0,0,0,,0,42,42,193,1,,,,
,,,,,,dae4eb5d65c7263f0b2480aa,66a626ef09d4e21e1a8894ec,6734d68795d1280205f458cd,2024-11-13_10h41.41.942,Tarea de género gramatical,2024.2.2,Win32,60.24096386,,,,,,,,,,,,,,,,,,,,,,,265.7762,266.853,l,1,[],[],[],[],[],[],[],0.4048,1,266.8533,267.3526,,,,,,459,FEM,AGR,150,mamá,la,a,0.4048,,267.3527,267.3532,-0.870370369,-0.482407464,0,0,0,,0,43,43,8,1,,,,
,,,,,,dae4eb5d65c7263f0b2480aa,66a626ef09d4e21e1a8894ec,6734d68795d1280205f458cd,2024-11-13_10h41.41.942,Tarea de género gramatical,2024.2.2,Win32,60.24096386,,,,,,,,,,,,,,,,,,,,,,,267.3581,268.3023,l,1,[],[],[],[],[],[],[],0.2693,1,268.3026,268.8016,,,,,,560,FEM,DIS,150,rosa,el,a,0.2693,,268.8017,268.8019,-0.870370369,-0.482407464,0,0,0,,0,44,44,109,1,,,,
,,,,,,dae4eb5d65c7263f0b2480aa,66a626ef09d4e21e1a8894ec,6734d68795d1280205f458cd,2024-11-13_10h41.41.942,Tarea de género gramatical,2024.2.2,Win32,60.24096386,,,,,,,,,,,,,,,,,,,,,,,268.8055,269.8346,a,1,[],[],[],[],[],[],[],0.352,1,269.8348,270.3334,,,,,,870,MAS,AGR,150,helado,el,l,0.352,,270.3335,270.3338,-0.870370369,-0.482407464,0,0,0,,0,45,45,419,1,,,,
,,,,,,dae4eb5d65c7263f0b2480aa,66a626ef09d4e21e1a8894ec,6734d68795d1280205f458cd,2024-11-13_10h41.41.942,Tarea de género gramatical,2024.2.2,Win32,60.24096386,,,,,,,,,,,,,,,,,,,,,,,270.3385,271.4221,l,1,[],[],[],[],[],[],[],0.4114,1,271.4225,271.918,,,,,,788,FEM,DIS,150,abuela,el,a,0.4114,,271.9182,271.9186,-0.870370369,-0.482407464,0,0,0,,0,46,46,337,1,,,,
,,,,,,dae4eb5d65c7263f0b2480aa,66a626ef09d4e21e1a8894ec,6734d68795d1280205f458cd,2024-11-13_10h41.41.942,Tarea de género gramatical,2024.2.2,Win32,60.24096386,,,,,,,,,,,,,,,,,,,,,,,271.9242,272.9175,a,1,[],[],[],[],[],[],[],0.3193,1,272.9178,273.4157,,,,,,473,MAS,DIS,150,rato,la,l,0.3193,,273.4212,273.4232,-0.870370369,-0.482407464,0,0,0,,0,47,47,22,1,,,,
,,,,,,dae4eb5d65c7263f0b2480aa,66a626ef09d4e21e1a8894ec,6734d68795d1280205f458cd,2024-11-13_10h41.41.942,Tarea de género gramatical,2024.2.2,Win32,60.24096386,,,,,,,,,,,,,,,,,,,,,,,273.4249,274.4152,l,1,[],[],[],[],[],[],[],0.3175,1,274.4154,274.9163,,,,,,619,FEM,CON,150,vista,,a,0.3175,,274.9165,274.9169,-0.870370369,-0.482407464,0,0,0,,0,48,48,168,1,,,,
,,,,,,dae4eb5d65c7263f0b2480aa,66a626ef09d4e21e1a8894ec,6734d68795d1280205f458cd,2024-11-13_10h41.41.942,Tarea de género gramatical,2024.2.2,Win32,60.24096386,,,,,,,,,,,,,,,,,,,,,,,274.9223,276.0359,a,1,[],[],[],[],[],[],[],0.4446,1,276.0364,276.5311,,,,,,570,MAS,AGR,150,puño,el,l,0.4446,,276.5312,276.5315,-0.870370369,-0.482407464,0,0,0,,0,49,49,119,1,,,,
,,,,,,dae4eb5d65c7263f0b2480aa,66a626ef09d4e21e1a8894ec,6734d68795d1280205f458cd,2024-11-13_10h41.41.942,Tarea de género gramatical,2024.2.2,Win32,60.24096386,,,,,,,,,,,,,,,,,,,,,,,276.5362,277.6154,l,1,[],[],[],[],[],[],[],0.4029,1,277.6156,278.1137,,,,,,819,FEM,AGR,150,camisa,la,a,0.4029,,278.1139,278.1142,-0.870370369,-0.482407464,0,0,0,,0,50,50,368,1,,,,
,,,,,,dae4eb5d65c7263f0b2480aa,66a626ef09d4e21e1a8894ec,6734d68795d1280205f458cd,2024-11-13_10h41.41.942,Tarea de género gramatical,2024.2.2,Win32,60.24096386,,,,,,,,,,,,,,,,,,,,,,,278.1192,279.2133,l,1,[],[],[],[],[],[],[],0.4203,1,279.2134,279.7143,,,,,,782,FEM,DIS,150,basura,el,a,0.4203,,279.7194,279.7217,-0.870370369,-0.482407464,0,0,0,,0,51,51,331,1,,,,
,,,,,,dae4eb5d65c7263f0b2480aa,66a626ef09d4e21e1a8894ec,6734d68795d1280205f458cd,2024-11-13_10h41.41.942,Tarea de género gramatical,2024.2.2,Win32,60.24096386,,,,,,,,,,,,,,,,,,,,,,,279.7239,280.6628,l,1,[],[],[],[],[],[],[],0.2665,1,280.6631,281.1626,,,,,,783,FEM,AGR,150,locura,la,a,0.2665,,281.1626,281.1629,-0.870370369,-0.482407464,0,0,0,,0,52,52,332,1,,,,
,,,,,,dae4eb5d65c7263f0b2480aa,66a626ef09d4e21e1a8894ec,6734d68795d1280205f458cd,2024-11-13_10h41.41.942,Tarea de género gramatical,2024.2.2,Win32,60.24096386,,,,,,,,,,,,,,,,,,,,,,,281.1657,282.1617,a,1,[],[],[],[],[],[],[],0.3229,1,282.1619,282.661,,,,,,546,MAS,AGR,150,pato,el,l,0.3229,,282.6611,282.6613,-0.870370369,-0.482407464,0,0,0,,0,53,53,95,1,,,,
,,,,,,dae4eb5d65c7263f0b2480aa,66a626ef09d4e21e1a8894ec,6734d68795d1280205f458cd,2024-11-13_10h41.41.942,Tarea de género gramatical,2024.2.2,Win32,60.24096386,,,,,,,,,,,,,,,,,,,,,,,282.6658,283.6773,a,1,[],[],[],[],[],[],[],0.335,1,283.6775,284.177,,,,,,622,MAS,CON,150,poder,,l,0.335,,284.1772,284.1774,-0.870370369,-0.482407464,0,0,0,,0,54,54,171,1,,,,
,,,,,,dae4eb5d65c7263f0b2480aa,66a626ef09d4e21e1a8894ec,6734d68795d1280205f458cd,2024-11-13_10h41.41.942,Tarea de género gramatical,2024.2.2,Win32,60.24096386,,,,,,,,,,,,,,,,,,,,,,,284.1804,285.1289,l,1,[],[],[],[],[],[],[],0.2746,1,285.1295,285.6267,,,,,,885,FEM,AGR,150,niebla,la,a,0.2746,,285.6267,285.6268,-0.870370369,-0.482407464,0,0,0,,0,55,55,434,1,,,,
,,,,,,dae4eb5d65c7263f0b2480aa,66a626ef09d4e21e1a8894ec,6734d68795d1280205f458cd,2024-11-13_10h41.41.942,Tarea de género gramatical,2024.2.2,Win32,60.24096386,,,,,,,,,,,,,,,,,,,,,,,285.6295,286.6599,a,1,[],[],[],[],[],[],[],0.3521,1,286.6601,287.1595,,,,,,731,MAS,DIS,150,actor,la,l,0.3521,,287.1619,287.1644,-0.870370369,-0.482407464,0,0,0,,0,56,56,280,1,,,,
,,,,,,dae4eb5d65c7263f0b2480aa,66a626ef09d4e21e1a8894ec,6734d68795d1280205f458cd,2024-11-13_10h41.41.942,Tarea de género gramatical,2024.2.2,Win32,60.24096386,,,,,,,,,,,,,,,,,,,,,,,287.1653,288.0931,l,0,[],[],[],[],[],[],[],0.2526,0,288.0966,288.5917,,,,,,743,MAS,DIS,150,patio,la,l,0.2526,,288.5918,288.5921,-0.870370369,-0.482407464,0,0,0,,0,57,57,292,1,,,,
,,,,,,dae4eb5d65c7263f0b2480aa,66a626ef09d4e21e1a8894ec,6734d68795d1280205f458cd,2024-11-13_10h41.41.942,Tarea de género gramatical,2024.2.2,Win32,60.24096386,,,,,,,,,,,,,,,,,,,,,,,288.5968,289.6931,a,1,[],[],[],[],[],[],[],0.4205,1,289.6957,290.1916,,,,,,545,MAS,DIS,150,tomo,la,l,0.4205,,290.1918,290.1922,-0.870370369,-0.482407464,0,0,0,,0,58,58,94,1,,,,
,,,,,,dae4eb5d65c7263f0b2480aa,66a626ef09d4e21e1a8894ec,6734d68795d1280205f458cd,2024-11-13_10h41.41.942,Tarea de género gramatical,2024.2.2,Win32,60.24096386,,,,,,,,,,,,,,,,,,,,,,,290.1973,291.3083,a,1,[],[],[],[],[],[],[],0.44,1,291.3085,291.8076,,,,,,856,MAS,CON,150,premio,,l,0.44,,291.8077,291.8081,-0.870370369,-0.482407464,0,0,0,,0,59,59,405,1,,,,
,,,,,,dae4eb5d65c7263f0b2480aa,66a626ef09d4e21e1a8894ec,6734d68795d1280205f458cd,2024-11-13_10h41.41.942,Tarea de género gramatical,2024.2.2,Win32,60.24096386,,,,,,,,,,,,,,,,,,,,,,,291.8132,292.7399,a,1,[],[],[],[],[],[],[],0.2492,1,292.74,293.2406,,,,,,688,MAS,CON,150,norte,,l,0.2492,,293.2468,293.2499,-0.870370369,-0.482407464,0,0,0,,0,60,60,237,1,,,,
,,,,,,dae4eb5d65c7263f0b2480aa,66a626ef09d4e21e1a8894ec,6734d68795d1280205f458cd,2024-11-13_10h41.41.942,Tarea de género gramatical,2024.2.2,Win32,60.24096386,,,,,,,,,,,,,,,,,,,,,,,293.2529,294.2906,l,1,[],[],[],[],[],[],[],0.3755,1,294.291,294.7896,,,,,,727,FEM,CON,150,plaza,,a,0.3755,,294.7898,294.7902,-0.870370369,-0.482407464,0,0,0,,0,61,61,276,1,,,,
,,,,,,dae4eb5d65c7263f0b2480aa,66a626ef09d4e21e1a8894ec,6734d68795d1280205f458cd,2024-11-13_10h41.41.942,Tarea de género gramatical,2024.2.2,Win32,60.24096386,,,,,,,,,,,,,,,,,,,,,,,294.7957,295.9217,a,0,[],[],[],[],[],[],[],0.4507,0,295.9244,296.4222,,,,,,812,FEM,DIS,150,fuente,el,a,0.4507,,296.4223,296.4225,-0.870370369,-0.482407464,0,0,0,,0,62,62,361,1,,,,
,,,,,,dae4eb5d65c7263f0b2480aa,66a626ef09d4e21e1a8894ec,6734d68795d1280205f458cd,2024-11-13_10h41.41.942,Tarea de género gramatical,2024.2.2,Win32,60.24096386,,,,,,,,,,,,,,,,,,,,,,,296.425,297.5555,a,1,[],[],[],[],[],[],[],0.4521,1,297.5582,298.0548,,,,,,646,MAS,CON,150,barco,,l,0.4521,,298.0548,298.055,-0.870370369,-0.482407464,0,0,0,,0,63,63,195,1,,,,
,,,,,,dae4eb5d65c7263f0b2480aa,66a626ef09d4e21e1a8894ec,6734d68795d1280205f458cd,2024-11-13_10h41.41.942,Tarea de género gramatical,2024.2.2,Win32,60.24096386,,,,,,,,,,,,,,,,,,,,,,,298.0575,299.1051,l,1,[],[],[],[],[],[],[],0.3749,1,299.1054,299.6035,,,,,,476,FEM,DIS,150,pena,el,a,0.3749,,299.6036,299.6039,-0.870370369,-0.482407464,0,0,0,,0,64,64,25,1,,,,
,,,,,,dae4eb5d65c7263f0b2480aa,66a626ef09d4e21e1a8894ec,6734d68795d1280205f458cd,2024-11-13_10h41.41.942,Tarea de género gramatical,2024.2.2,Win32,60.24096386,,,,,,,,,,,,,,,,,,,,,,,299.6085,300.8531,l,1,[],[],[],[],[],[],[],0.5732,1,300.8533,301.3532,,,,,,591,FEM,AGR,150,cera,la,a,0.5732,,301.357,301.3592,-0.870370369,-0.482407464,0,0,0,,0,65,65,140,1,,,,
,,,,,,dae4eb5d65c7263f0b2480aa,66a626ef09d4e21e1a8894ec,6734d68795d1280205f458cd,2024-11-13_10h41.41.942,Tarea de género gramatical,2024.2.2,Win32,60.24096386,,,,,,,,,,,,,,,,,,,,,,,301.3605,302.4525,a,1,[],[],[],[],[],[],[],0.4165,1,302.4527,302.9527,,,,,,863,MAS,DIS,150,diario,la,l,0.4165,,302.9529,302.9531,-0.870370369,-0.482407464,0,0,0,,0,66,66,412,1,,,,
,,,,,,dae4eb5d65c7263f0b2480aa,66a626ef09d4e21e1a8894ec,6734d68795d1280205f458cd,2024-11-13_10h41.41.942,Tarea de género gramatical,2024.2.2,Win32,60.24096386,,,,,,,,,,,,,,,,,,,,,,,302.9559,304.002,a,1,[],[],[],[],[],[],[],0.3674,1,304.0023,304.5022,,,,,,834,MAS,AGR,150,pedazo,el,l,0.3674,,304.5023,304.5025,-0.870370369,-0.482407464,0,0,0,,0,67,67,383,1,,,,
,,,,,,dae4eb5d65c7263f0b2480aa,66a626ef09d4e21e1a8894ec,6734d68795d1280205f458cd,2024-11-13_10h41.41.942,Tarea de género gramatical,2024.2.2,Win32,60.24096386,,,,,,,,,,,,,,,,,,,,,,,304.5075,305.518,a,1,[],[],[],[],[],[],[],0.336,1,305.5182,306.0183,,,,,,503,MAS,DIS,150,vaso,la,l,0.336,,306.0185,306.0189,-0.870370369,-0.482407464,0,0,0,,0,68,68,52,1,,,,
,,,,,,dae4eb5d65c7263f0b2480aa,66a626ef09d4e21e1a8894ec,6734d68795d1280205f458cd,2024-11-13_10h41.41.942,Tarea de género gramatical,2024.2.2,Win32,60.24096386,,,,,,,,,,,,,,,,,,,,,,,306.0233,307.1346,a,1,[],[],[],[],[],[],[],0.4356,1,307.135,307.6342,,,,,,502,MAS,CON,150,lago,,l,0.4356,,307.6395,307.6417,-0.870370369,-0.482407464,0,0,0,,0,69,69,51,1,,,,
,,,,,,dae4eb5d65c7263f0b2480aa,66a626ef09d4e21e1a8894ec,6734d68795d1280205f458cd,2024-11-13_10h41.41.942,Tarea de género gramatical,2024.2.2,Win32,60.24096386,,,,,,,,,,,,,,,,,,,,,,,307.644,308.6828,a,1,[],[],[],[],[],[],[],0.3714,1,308.683,309.1824,,,,,,792,MAS,AGR,150,abuelo,el,l,0.3714,,309.1825,309.1829,-0.870370369,-0.482407464,0,0,0,,0,70,70,341,1,,,,
,,,,,,dae4eb5d65c7263f0b2480aa,66a626ef09d4e21e1a8894ec,6734d68795d1280205f458cd,2024-11-13_10h41.41.942,Tarea de género gramatical,2024.2.2,Win32,60.24096386,,,,,,,,,,,,,,,,,,,,,,,309.1877,310.4159,l,1,[],[],[],[],[],[],[],0.5524,1,310.4162,310.9155,,,,,,603,FEM,AGR,150,mujer,la,a,0.5524,,310.9155,310.9157,-0.870370369,-0.482407464,0,0,0,,0,71,71,152,1,,,,
,,,,,,dae4eb5d65c7263f0b2480aa,66a626ef09d4e21e1a8894ec,6734d68795d1280205f458cd,2024-11-13_10h41.41.942,Tarea de género gramatical,2024.2.2,Win32,60.24096386,,,,,,,,,,,,,,,,,,,,,,,310.9183,311.9321,l,1,[],[],[],[],[],[],[],0.3411,1,311.9324,312.4316,,,,,,548,FEM,DIS,150,fuga,el,a,0.3411,,312.4316,312.4318,-0.870370369,-0.482407464,0,0,0,,0,72,72,97,1,,,,
,,,,,,dae4eb5d65c7263f0b2480aa,66a626ef09d4e21e1a8894ec,6734d68795d1280205f458cd,2024-11-13_10h41.41.942,Tarea de género gramatical,2024.2.2,Win32,60.24096386,,,,,,,,,,,,,,,,,,,,,,,312.4359,313.4638,l,1,[],[],[],[],[],[],[],0.3542,1,313.464,313.9637,,,,,,626,FEM,DIS,150,línea,el,a,0.3542,,313.9637,313.9639,-0.870370369,-0.482407464,0,0,0,,0,73,73,175,1,,,,
,,,,,,dae4eb5d65c7263f0b2480aa,66a626ef09d4e21e1a8894ec,6734d68795d1280205f458cd,2024-11-13_10h41.41.942,Tarea de género gramatical,2024.2.2,Win32,60.24096386,,,,,,,,,,,,,,,,,,,,,,,313.9654,315.1463,l,1,[],[],[],[],[],[],[],0.5007,1,315.1465,315.647,,,,,,500,FEM,DIS,150,dama,el,a,0.5007,,315.651,315.6526,-0.870370369,-0.482407464,0,0,0,,0,74,74,49,1,,,,
,,,,,,dae4eb5d65c7263f0b2480aa,66a626ef09d4e21e1a8894ec,6734d68795d1280205f458cd,2024-11-13_10h41.41.942,Tarea de género gramatical,2024.2.2,Win32,60.24096386,,,,,,,,,,,,,,,,,,,,,,,315.6539,316.6624,l,1,[],[],[],[],[],[],[],0.3329,1,316.6627,317.1629,,,,,,657,FEM,AGR,150,playa,la,a,0.3329,,317.163,317.1636,-0.870370369,-0.482407464,0,0,0,,0,75,75,206,1,,,,
,,,,,,dae4eb5d65c7263f0b2480aa,66a626ef09d4e21e1a8894ec,6734d68795d1280205f458cd,2024-11-13_10h41.41.942,Tarea de género gramatical,2024.2.2,Win32,60.24096386,,,,,,,,,,,,,,,,,,,,,,,317.1692,318.1624,l,1,[],[],[],[],[],[],[],0.3224,1,318.1629,318.6615,,,,,,795,FEM,AGR,150,pierna,la,a,0.3224,,318.6616,318.6618,-0.870370369,-0.482407464,0,0,0,,0,76,76,344,1,,,,
,,,,,,dae4eb5d65c7263f0b2480aa,66a626ef09d4e21e1a8894ec,6734d68795d1280205f458cd,2024-11-13_10h41.41.942,Tarea de género gramatical,2024.2.2,Win32,60.24096386,,,,,,,,,,,,,,,,,,,,,,,318.6662,319.629,a,1,[],[],[],[],[],[],[],0.2866,1,319.6293,320.1279,,,,,,894,MAS,AGR,150,límite,el,l,0.2866,,320.1281,320.1285,-0.870370369,-0.482407464,0,0,0,,0,77,77,443,1,,,,
,,,,,,dae4eb5d65c7263f0b2480aa,66a626ef09d4e21e1a8894ec,6734d68795d1280205f458cd,2024-11-13_10h41.41.942,Tarea de género gramatical,2024.2.2,Win32,60.24096386,,,,,,,,,,,,,,,,,,,,,,,320.1341,321.1448,l,1,[],[],[],[],[],[],[],0.3318,1,321.145,321.644,,,,,,813,FEM,AGR,150,unidad,la,a,0.3318,,321.6494,321.6516,-0.870370369,-0.482407464,0,0,0,,0,78,78,362,1,,,,
,,,,,,dae4eb5d65c7263f0b2480aa,66a626ef09d4e21e1a8894ec,6734d68795d1280205f458cd,2024-11-13_10h41.41.942,Tarea de género gramatical,2024.2.2,Win32,60.24096386,,,,,,,,,,,,,,,,,,,,,,,321.6535,322.5267,a,1,[],[],[],[],[],[],[],0.2047,1,322.5268,323.027,,,,,,498,MAS,AGR,150,loco,el,l,0.2047,,323.0272,323.0276,-0.870370369,-0.482407464,0,0,0,,0,79,79,47,1,,,,
,,,,,,dae4eb5d65c7263f0b2480aa,66a626ef09d4e21e1a8894ec,6734d68795d1280205f458cd,2024-11-13_10h41.41.942,Tarea de género gramatical,2024.2.2,Win32,60.24096386,,,,,,,,,,,,,,,,,,,,,,,323.0336,324.1099,a,1,[],[],[],[],[],[],[],0.4027,1,324.1101,324.6102,,,,,,671,MAS,DIS,150,brazo,la,l,0.4027,,324.6103,324.6107,-0.870370369,-0.482407464,0,0,0,,0,80,80,220,1,,,,
,,,,,,dae4eb5d65c7263f0b2480aa,66a626ef09d4e21e1a8894ec,6734d68795d1280205f458cd,2024-11-13_10h41.41.942,Tarea de género gramatical,2024.2.2,Win32,60.24096386,,,,,,,,,,,,,,,,,,,,,,,324.6159,325.7255,l,1,[],[],[],[],[],[],[],0.4406,1,325.7258,326.2249,,,,,,817,FEM,CON,150,teoría,,a,0.4406,,326.225,326.2253,-0.870370369,-0.482407464,0,0,0,,0,81,81,366,1,,,,
,,,,,,dae4eb5d65c7263f0b2480aa,66a626ef09d4e21e1a8894ec,6734d68795d1280205f458cd,2024-11-13_10h41.41.942,Tarea de género gramatical,2024.2.2,Win32,60.24096386,,,,,,,,,,,,,,,,,,,,,,,326.2287,327.2411,l,1,[],[],[],[],[],[],[],0.334,1,327.2412,327.7416,,,,,,650,FEM,DIS,150,silla,el,a,0.334,,327.7417,327.742,-0.870370369,-0.482407464,0,0,0,,0,82,82,199,1,,,,
,,,,,,dae4eb5d65c7263f0b2480aa,66a626ef09d4e21e1a8894ec,6734d68795d1280205f458cd,2024-11-13_10h41.41.942,Tarea de género gramatical,2024.2.2,Win32,60.24096386,,,,,,,,,,,,,,,,,,,,,,,327.7464,328.6745,l,1,[],[],[],[],[],[],[],0.2575,1,328.6747,329.1738,,,,,,451,FEM,CON,150,casa,,a,0.2575,,329.1759,329.1787,-0.870370369,-0.482407464,0,0,0,,0,83,83,0,1,,,,
,,,,,,dae4eb5d65c7263f0b2480aa,66a626ef09d4e21e1a8894ec,6734d68795d1280205f458cd,2024-11-13_10h41.41.942,Tarea de género gramatical,2024.2.2,Win32,60.24096386,,,,,,,,,,,,,,,,,,,,,,,329.1798,330.2063,l,1,[],[],[],[],[],[],[],0.3521,1,330.2064,330.7068,,,,,,776,FEM,DIS,150,música,el,a,0.3521,,330.7069,330.7074,-0.870370369,-0.482407464,0,0,0,,0,84,84,325,1,,,,
,,,,,,dae4eb5d65c7263f0b2480aa,66a626ef09d4e21e1a8894ec,6734d68795d1280205f458cd,2024-11-13_10h41.41.942,Tarea de género gramatical,2024.2.2,Win32,60.24096386,,,,,,,,,,,,,,,,,,,,,,,330.7126,331.6732,a,1,[],[],[],[],[],[],[],0.283,1,331.6734,332.1735,,,,,,748,MAS,CON,150,botón,,l,0.283,,332.1738,332.174,-0.870370369,-0.482407464,0,0,0,,0,85,85,297,1,,,,
,,,,,,dae4eb5d65c7263f0b2480aa,66a626ef09d4e21e1a8894ec,6734d68795d1280205f458cd,2024-11-13_10h41.41.942,Tarea de género gramatical,2024.2.2,Win32,60.24096386,,,,,,,,,,,,,,,,,,,,,,,332.1792,333.2083,a,1,[],[],[],[],[],[],[],0.36,1,333.209,333.7049,,,,,,821,MAS,DIS,150,sonido,la,l,0.36,,333.7051,333.7052,-0.870370369,-0.482407464,0,0,0,,0,86,86,370,1,,,,
,,,,,,dae4eb5d65c7263f0b2480aa,66a626ef09d4e21e1a8894ec,6734d68795d1280205f458cd,2024-11-13_10h41.41.942,Tarea de género gramatical,2024.2.2,Win32,60.24096386,,,,,,,,,,,,,,,,,,,,,,,333.7078,334.6209,a,1,[],[],[],[],[],[],[],0.2331,1,334.6211,335.1217,,,,,,778,MAS,CON,150,asunto,,l,0.2331,,335.1259,335.1271,-0.870370369,-0.482407464,0,0,0,,0,87,87,327,1,,,,
,,,,,,dae4eb5d65c7263f0b2480aa,66a626ef09d4e21e1a8894ec,6734d68795d1280205f458cd,2024-11-13_10h41.41.942,Tarea de género gramatical,2024.2.2,Win32,60.24096386,,,,,,,,,,,,,,,,,,,,,,,335.1282,336.0547,a,1,[],[],[],[],[],[],[],0.2512,1,336.0551,336.5538,,,,,,850,MAS,CON,150,barrio,,l,0.2512,,336.5539,336.5541,-0.870370369,-0.482407464,0,0,0,,0,88,88,399,1,,,,
,,,,,,dae4eb5d65c7263f0b2480aa,66a626ef09d4e21e1a8894ec,6734d68795d1280205f458cd,2024-11-13_10h41.41.942,Tarea de género gramatical,2024.2.2,Win32,60.24096386,,,,,,,,,,,,,,,,,,,,,,,336.5588,337.5705,l,1,[],[],[],[],[],[],[],0.3343,1,337.5708,338.0694,,,,,,807,FEM,AGR,150,lengua,la,a,0.3343,,338.0694,338.0697,-0.870370369,-0.482407464,0,0,0,,0,89,89,356,1,,,,
,,,,,,dae4eb5d65c7263f0b2480aa,66a626ef09d4e21e1a8894ec,6734d68795d1280205f458cd,2024-11-13_10h41.41.942,Tarea de género gramatical,2024.2.2,Win32,60.24096386,,,,,,,,,,,,,,,,,,,,,,,338.0746,339.0396,a,1,[],[],[],[],[],[],[],0.2915,1,339.0402,339.5358,,,,,,527,MAS,DIS,150,pico,la,l,0.2915,,339.5358,339.536,-0.870370369,-0.482407464,0,0,0,,0,90,90,76,1,,,,
,,,,,,dae4eb5d65c7263f0b2480aa,66a626ef09d4e21e1a8894ec,6734d68795d1280205f458cd,2024-11-13_10h41.41.942,Tarea de género gramatical,2024.2.2,Win32,60.24096386,,,,,,,,,,,,,,,,,,,,,,,339.5382,340.6539,l,1,[],[],[],[],[],[],[],0.4354,1,340.6543,341.152,,,,,,787,FEM,CON,150,escena,,a,0.4354,,341.1522,341.1525,-0.870370369,-0.482407464,0,0,0,,0,91,91,336,1,,,,
,,,,,,dae4eb5d65c7263f0b2480aa,66a626ef09d4e21e1a8894ec,6734d68795d1280205f458cd,2024-11-13_10h41.41.942,Tarea de género gramatical,2024.2.2,Win32,60.24096386,,,,,,,,,,,,,,,,,,,,,,,341.1575,342.1706,a,1,[],[],[],[],[],[],[],0.333,1,342.1716,342.6675,,,,,,467,MAS,DIS,150,modo,la,l,0.333,,342.6719,342.6733,-0.870370369,-0.482407464,0,0,0,,0,92,92,16,1,,,,
,,,,,,dae4eb5d65c7263f0b2480aa,66a626ef09d4e21e1a8894ec,6734d68795d1280205f458cd,2024-11-13_10h41.41.942,Tarea de género gramatical,2024.2.2,Win32,60.24096386,,,,,,,,,,,,,,,,,,,,,,,342.6748,343.7007,a,1,[],[],[],[],[],[],[],0.3521,1,343.7008,344.2011,,,,,,790,MAS,CON,150,pasado,,l,0.3521,,344.2013,344.2018,-0.870370369,-0.482407464,0,0,0,,0,93,93,339,1,,,,
,,,,,,dae4eb5d65c7263f0b2480aa,66a626ef09d4e21e1a8894ec,6734d68795d1280205f458cd,2024-11-13_10h41.41.942,Tarea de género gramatical,2024.2.2,Win32,60.24096386,,,,,,,,,,,,,,,,,,,,,,,344.2068,345.2334,a,1,[],[],[],[],[],[],[],0.3552,1,345.2335,345.7336,,,,,,784,MAS,CON,150,ataque,,l,0.3552,,345.7337,345.7338,-0.870370369,-0.482407464,0,0,0,,0,94,94,333,1,,,,
,,,,,,dae4eb5d65c7263f0b2480aa,66a626ef09d4e21e1a8894ec,6734d68795d1280205f458cd,2024-11-13_10h41.41.942,Tarea de género gramatical,2024.2.2,Win32,60.24096386,,,,,,,,,,,,,,,,,,,,,,,345.7369,346.7825,l,1,[],[],[],[],[],[],[],0.373,1,346.7828,347.2825,,,,,,871,FEM,CON,150,novela,,a,0.373,,347.2825,347.2827,-0.870370369,-0.482407464,0,0,0,,0,95,95,420,1,,,,
,,,,,,dae4eb5d65c7263f0b2480aa,66a626ef09d4e21e1a8894ec,6734d68795d1280205f458cd,2024-11-13_10h41.41.942,Tarea de género gramatical,2024.2.2,Win32,60.24096386,,,,,,,,,,,,,,,,,,,,,,,347.2856,348.349,l,1,[],[],[],[],[],[],[],0.388,1,348.3492,348.8478,,,,,,620,FEM,DIS,150,carta,el,a,0.388,,348.8534,348.8553,-0.870370369,-0.482407464,0,0,0,,0,96,96,169,1,,,,
,,,,,,dae4eb5d65c7263f0b2480aa,66a626ef09d4e21e1a8894ec,6734d68795d1280205f458cd,2024-11-13_10h41.41.942,Tarea de género gramatical,2024.2.2,Win32,60.24096386,,,,,,,,,,,,,,,,,,,,,,,348.857,349.7653,a,1,[],[],[],[],[],[],[],0.2346,1,349.7655,350.2642,,,,,,509,MAS,DIS,150,lobo,la,l,0.2346,,350.2643,350.2644,-0.870370369,-0.482407464,0,0,0,,0,97,97,58,1,,,,
,,,,,,dae4eb5d65c7263f0b2480aa,66a626ef09d4e21e1a8894ec,6734d68795d1280205f458cd,2024-11-13_10h41.41.942,Tarea de género gramatical,2024.2.2,Win32,60.24096386,,,,,,,,,,,,,,,,,,,,,,,350.2669,351.2632,a,1,[],[],[],[],[],[],[],0.3202,1,351.2634,351.7629,,,,,,534,MAS,AGR,150,mago,el,l,0.3202,,351.763,351.7631,-0.870370369,-0.482407464,0,0,0,,0,98,98,83,1,,,,
,,,,,,dae4eb5d65c7263f0b2480aa,66a626ef09d4e21e1a8894ec,6734d68795d1280205f458cd,2024-11-13_10h41.41.942,Tarea de género gramatical,2024.2.2,Win32,60.24096386,,,,,,,,,,,,,,,,,,,,,,,351.7662,352.8295,l,1,[],[],[],[],[],[],[],0.3831,1,352.8297,353.3298,,,,,,770,FEM,DIS,150,fiesta,el,a,0.3831,,353.3299,353.3302,-0.870370369,-0.482407464,0,0,0,,0,99,99,319,1,,,,
,,,,,,dae4eb5d65c7263f0b2480aa,66a626ef09d4e21e1a8894ec,6734d68795d1280205f458cd,2024-11-13_10h41.41.942,Tarea de género gramatical,2024.2.2,Win32,60.24096386,,,,,,,,,,,,,,,,,,,,,,,353.3345,354.2954,a,1,[],[],[],[],[],[],[],0.2831,1,354.2956,354.7956,,,,,,809,MAS,DIS,150,bosque,la,l,0.2831,,354.7957,354.796,-0.870370369,-0.482407464,0,0,0,,0,100,100,358,1,,,,
,,,,,,dae4eb5d65c7263f0b2480aa,66a626ef09d4e21e1a8894ec,6734d68795d1280205f458cd,2024-11-13_10h41.41.942,Tarea de género gramatical,2024.2.2,Win32,60.24096386,,,,,,,,,,,,,,,,,,,,,,,354.8016,355.7619,a,1,[],[],[],[],[],[],[],0.2885,1,355.7622,356.2616,,,,,,864,MAS,AGR,150,sótano,el,l,0.2885,,356.2711,356.2739,-0.870370369,-0.482407464,0,0,0,,0,101,101,413,1,,,,
,,,,,,dae4eb5d65c7263f0b2480aa,66a626ef09d4e21e1a8894ec,6734d68795d1280205f458cd,2024-11-13_10h41.41.942,Tarea de género gramatical,2024.2.2,Win32,60.24096386,,,,,,,,,,,,,,,,,,,,,,,356.2756,357.3275,a,1,[],[],[],[],[],[],[],0.3889,1,357.3276,357.8277,,,,,,462,MAS,AGR,150,plan,el,l,0.3889,,357.8277,357.828,-0.870370369,-0.482407464,0,0,0,,0,102,102,11,1,,,,
,,,,,,dae4eb5d65c7263f0b2480aa,66a626ef09d4e21e1a8894ec,6734d68795d1280205f458cd,2024-11-13_10h41.41.942,Tarea de género gramatical,2024.2.2,Win32,60.24096386,,,,,,,,,,,,,,,,,,,,,,,357.8314,358.7278,a,1,[],[],[],[],[],[],[],0.2251,1,358.7279,359.2264,,,,,,749,MAS,DIS,150,rumbo,la,l,0.2251,,359.2265,359.2267,-0.870370369,-0.482407464,0,0,0,,0,103,103,298,1,,,,
,,,,,,dae4eb5d65c7263f0b2480aa,66a626ef09d4e21e1a8894ec,6734d68795d1280205f458cd,2024-11-13_10h41.41.942,Tarea de género gramatical,2024.2.2,Win32,60.24096386,,,,,,,,,,,,,,,,,,,,,,,359.2316,360.1426,a,1,[],[],[],[],[],[],[],0.2357,1,360.1427,360.6429,,,,,,630,MAS,AGR,150,fuego,el,l,0.2357,,360.6431,360.6433,-0.870370369,-0.482407464,0,0,0,,0,104,104,179,1,,,,
,,,,,,dae4eb5d65c7263f0b2480aa,66a626ef09d4e21e1a8894ec,6734d68795d1280205f458cd,2024-11-13_10h41.41.942,Tarea de género gramatical,2024.2.2,Win32,60.24096386,,,,,,,,,,,,,,,,,,,,,,,360.6476,361.6595,l,1,[],[],[],[],[],[],[],0.3356,1,361.6598,362.1586,,,,,,608,FEM,DIS,150,chica,el,a,0.3356,,362.162,362.1642,-0.870370369,-0.482407464,0,0,0,,0,105,105,157,1,,,,
,,,,,,dae4eb5d65c7263f0b2480aa,66a626ef09d4e21e1a8894ec,6734d68795d1280205f458cd,2024-11-13_10h41.41.942,Tarea de género gramatical,2024.2.2,Win32,60.24096386,,,,,,,,,,,,,,,,,,,,,,,362.1657,363.1085,a,1,[],[],[],[],[],[],[],0.2727,1,363.1088,363.6085,,,,,,732,MAS,AGR,150,bolso,el,l,0.2727,,363.6085,363.6087,-0.870370369,-0.482407464,0,0,0,,0,106,106,281,1,,,,
,,,,,,dae4eb5d65c7263f0b2480aa,66a626ef09d4e21e1a8894ec,6734d68795d1280205f458cd,2024-11-13_10h41.41.942,Tarea de género gramatical,2024.2.2,Win32,60.24096386,,,,,,,,,,,,,,,,,,,,,,,363.6117,364.5247,a,1,[],[],[],[],[],[],[],0.24,1,364.525,365.0238,,,,,,479,MAS,DIS,150,frío,la,l,0.24,,365.0239,365.0241,-0.870370369,-0.482407464,0,0,0,,0,107,107,28,1,,,,
,,,,,,dae4eb5d65c7263f0b2480aa,66a626ef09d4e21e1a8894ec,6734d68795d1280205f458cd,2024-11-13_10h41.41.942,Tarea de género gramatical,2024.2.2,Win32,60.24096386,,,,,,,,,,,,,,,,,,,,,,,365.0288,365.9567,a,1,[],[],[],[],[],[],[],0.2521,1,365.9568,366.4565,,,,,,610,MAS,CON,150,señor,,l,0.2521,,366.4566,366.4568,-0.870370369,-0.482407464,0,0,0,,0,108,108,159,1,,,,
,,,,,,dae4eb5d65c7263f0b2480aa,66a626ef09d4e21e1a8894ec,6734d68795d1280205f458cd,2024-11-13_10h41.41.942,Tarea de género gramatical,2024.2.2,Win32,60.24096386,,,,,,,,,,,,,,,,,,,,,,,366.4621,367.4231,a,1,[],[],[],[],[],[],[],0.2831,1,367.4233,367.9228,,,,,,581,MAS,DIS,150,kilo,la,l,0.2831,,367.9229,367.9233,-0.870370369,-0.482407464,0,0,0,,0,109,109,130,1,,,,
,,,,,,dae4eb5d65c7263f0b2480aa,66a626ef09d4e21e1a8894ec,6734d68795d1280205f458cd,2024-11-13_10h41.41.942,Tarea de género gramatical,2024.2.2,Win32,60.24096386,,,,,,,,,,,,,,,,,,,,,,,367.9283,369.0562,l,1,[],[],[],[],[],[],[],0.4519,1,369.0565,369.5557,,,,,,800,FEM,DIS,150,imagen,el,a,0.4519,,369.5601,369.5614,-0.870370369,-0.482407464,0,0,0,,0,110,110,349,1,,,,
,,,,,,dae4eb5d65c7263f0b2480aa,66a626ef09d4e21e1a8894ec,6734d68795d1280205f458cd,2024-11-13_10h41.41.942,Tarea de género gramatical,2024.2.2,Win32,60.24096386,,,,,,,,,,,,,,,,,,,,,,,369.5627,370.6715,l,1,[],[],[],[],[],[],[],0.4359,1,370.6716,371.1711,,,,,,633,FEM,AGR,150,llave,la,a,0.4359,,371.1712,371.1713,-0.870370369,-0.482407464,0,0,0,,0,111,111,182,1,,,,
,,,,,,dae4eb5d65c7263f0b2480aa,66a626ef09d4e21e1a8894ec,6734d68795d1280205f458cd,2024-11-13_10h41.41.942,Tarea de género gramatical,2024.2.2,Win32,60.24096386,,,,,,,,,,,,,,,,,,,,,,,371.1745,372.2548,a,0,[],[],[],[],[],[],[],0.4063,0,372.2596,372.7536,,,,,,517,FEM,CON,150,miel,,a,0.4063,,372.7538,372.754,-0.870370369,-0.482407464,0,0,0,,0,112,112,66,1,,,,
,,,,,,dae4eb5d65c7263f0b2480aa,66a626ef09d4e21e1a8894ec,6734d68795d1280205f458cd,2024-11-13_10h41.41.942,Tarea de género gramatical,2024.2.2,Win32,60.24096386,,,,,,,,,,,,,,,,,,,,,,,372.7588,373.7543,l,1,[],[],[],[],[],[],[],0.3194,1,373.7583,374.2536,,,,,,547,FEM,CON,150,capa,,a,0.3194,,374.2537,374.254,-0.870370369,-0.482407464,0,0,0,,0,113,113,96,1,,,,
,,,,,,dae4eb5d65c7263f0b2480aa,66a626ef09d4e21e1a8894ec,6734d68795d1280205f458cd,2024-11-13_10h41.41.942,Tarea de género gramatical,2024.2.2,Win32,60.24096386,,,,,,,,,,,,,,,,,,,,,,,374.2581,375.2531,a,0,[],[],[],[],[],[],[],0.318,0,375.2567,375.7532,,,,,,895,FEM,CON,150,bondad,,a,0.318,,375.7575,375.7588,-0.870370369,-0.482407464,0,0,0,,0,114,114,444,1,,,,
,,,,,,dae4eb5d65c7263f0b2480aa,66a626ef09d4e21e1a8894ec,6734d68795d1280205f458cd,2024-11-13_10h41.41.942,Tarea de género gramatical,2024.2.2,Win32,60.24096386,,,,,,,,,,,,,,,,,,,,,,,375.76,376.8021,l,1,[],[],[],[],[],[],[],0.3716,1,376.8035,377.3022,,,,,,698,FEM,DIS,150,letra,el,a,0.3716,,377.3023,377.3026,-0.870370369,-0.482407464,0,0,0,,0,115,115,247,1,,,,
,,,,,,dae4eb5d65c7263f0b2480aa,66a626ef09d4e21e1a8894ec,6734d68795d1280205f458cd,2024-11-13_10h41.41.942,Tarea de género gramatical,2024.2.2,Win32,60.24096386,,,,,,,,,,,,,,,,,,,,,,,377.3063,378.2845,l,1,[],[],[],[],[],[],[],0.3041,1,378.2847,378.785,,,,,,669,FEM,AGR,150,costa,la,a,0.3041,,378.7851,378.7853,-0.870370369,-0.482407464,0,0,0,,0,116,116,218,1,,,,
,,,,,,dae4eb5d65c7263f0b2480aa,66a626ef09d4e21e1a8894ec,6734d68795d1280205f458cd,2024-11-13_10h41.41.942,Tarea de género gramatical,2024.2.2,Win32,60.24096386,,,,,,,,,,,,,,,,,,,,,,,378.79,379.8169,l,1,[],[],[],[],[],[],[],0.3545,1,379.8171,380.3168,,,,,,681,FEM,AGR,150,bruja,la,a,0.3545,,380.3169,380.3172,-0.870370369,-0.482407464,0,0,0,,0,117,117,230,1,,,,
,,,,,,dae4eb5d65c7263f0b2480aa,66a626ef09d4e21e1a8894ec,6734d68795d1280205f458cd,2024-11-13_10h41.41.942,Tarea de género gramatical,2024.2.2,Win32,60.24096386,,,,,,,,,,,,,,,,,,,,,,,380.3218,381.3341,a,1,[],[],[],[],[],[],[],0.3348,1,381.3343,381.8327,,,,,,604,MAS,CON,150,padre,,l,0.3348,,381.8327,381.8329,-0.870370369,-0.482407464,0,0,0,,0,118,118,153,1,,,,
,,,,,,dae4eb5d65c7263f0b2480aa,66a626ef09d4e21e1a8894ec,6734d68795d1280205f458cd,2024-11-13_10h41.41.942,Tarea de género gramatical,2024.2.2,Win32,60.24096386,,,,,,,,,,,,,,,,,,,,,,,381.8373,383.1494,l,0,[],[],[],[],[],[],[],0.6383,0,383.152,383.6495,,,,,,725,MAS,DIS,150,disco,la,l,0.6383,,383.6538,383.6551,-0.870370369,-0.482407464,0,0,0,,0,119,119,274,1,,,,
,,,,,,dae4eb5d65c7263f0b2480aa,66a626ef09d4e21e1a8894ec,6734d68795d1280205f458cd,2024-11-13_10h41.41.942,Tarea de género gramatical,2024.2.2,Win32,60.24096386,,,,,,,,,,,,,,,,,,,,,,,383.6563,384.8497,l,0,[],[],[],[],[],[],[],0.5184,0,384.8499,385.3495,,,,,,588,MAS,AGR,150,luto,el,l,0.5184,,385.3495,385.35,-0.870370369,-0.482407464,0,0,0,,0,120,120,137,1,,,,
,,,,,,dae4eb5d65c7263f0b2480aa,66a626ef09d4e21e1a8894ec,6734d68795d1280205f458cd,2024-11-13_10h41.41.942,Tarea de género gramatical,2024.2.2,Win32,60.24096386,,,,,,,,,,,,,,,,,,,,,,,385.3543,386.4485,l,1,[],[],[],[],[],[],[],0.4176,1,386.4509,386.9478,,,,,,745,FEM,CON,150,grasa,,a,0.4176,,386.9479,386.9481,-0.870370369,-0.482407464,0,0,0,,0,121,121,294,1,,,,
,,,,,,dae4eb5d65c7263f0b2480aa,66a626ef09d4e21e1a8894ec,6734d68795d1280205f458cd,2024-11-13_10h41.41.942,Tarea de género gramatical,2024.2.2,Win32,60.24096386,,,,,,,,,,,,,,,,,,,,,,,386.9517,388.0139,a,1,[],[],[],[],[],[],[],0.3867,1,388.0141,388.5131,,,,,,612,MAS,AGR,150,miedo,el,l,0.3867,,388.5132,388.5135,-0.870370369,-0.482407464,0,0,0,,0,122,122,161,1,,,,
,,,,,,dae4eb5d65c7263f0b2480aa,66a626ef09d4e21e1a8894ec,6734d68795d1280205f458cd,2024-11-13_10h41.41.942,Tarea de género gramatical,2024.2.2,Win32,60.24096386,,,,,,,,,,,,,,,,,,,,,,,388.5177,389.5474,a,1,[],[],[],[],[],[],[],0.3514,1,389.5476,390.0458,,,,,,592,MAS,CON,150,lodo,,l,0.3514,,390.0511,390.0528,-0.870370369,-0.482407464,0,0,0,,0,123,123,141,1,,,,
,,,,,,dae4eb5d65c7263f0b2480aa,66a626ef09d4e21e1a8894ec,6734d68795d1280205f458cd,2024-11-13_10h41.41.942,Tarea de género gramatical,2024.2.2,Win32,60.24096386,,,,,,,,,,,,,,,,,,,,,,,390.0545,391.1625,l,1,[],[],[],[],[],[],[],0.435,1,391.1627,391.662,,,,,,715,FEM,CON,150,rueda,,a,0.435,,391.6621,391.6622,-0.870370369,-0.482407464,0,0,0,,0,124,124,264,1,,,,
,,,,,,dae4eb5d65c7263f0b2480aa,66a626ef09d4e21e1a8894ec,6734d68795d1280205f458cd,2024-11-13_10h41.41.942,Tarea de género gramatical,2024.2.2,Win32,60.24096386,,,,,,,,,,,,,,,,,,,,,,,391.6647,392.6947,l,1,[],[],[],[],[],[],[],0.3503,1,392.6948,393.1944,,,,,,709,FEM,CON,150,prima,,a,0.3503,,393.1945,393.1947,-0.870370369,-0.482407464,0,0,0,,0,125,125,258,1,,,,
,,,,,,dae4eb5d65c7263f0b2480aa,66a626ef09d4e21e1a8894ec,6734d68795d1280205f458cd,2024-11-13_10h41.41.942,Tarea de género gramatical,2024.2.2,Win32,60.24096386,,,,,,,,,,,,,,,,,,,,,,,393.1984,394.3268,a,1,[],[],[],[],[],[],[],0.4645,1,394.3269,394.8271,,,,,,510,MAS,AGR,150,tono,el,l,0.4645,,394.8272,394.8275,-0.870370369,-0.482407464,0,0,0,,0,126,126,59,1,,,,
,,,,,,dae4eb5d65c7263f0b2480aa,66a626ef09d4e21e1a8894ec,6734d68795d1280205f458cd,2024-11-13_10h41.41.942,Tarea de género gramatical,2024.2.2,Win32,60.24096386,,,,,,,,,,,,,,,,,,,,,,,394.8321,395.8278,l,1,[],[],[],[],[],[],[],0.3209,1,395.828,396.3267,,,,,,793,FEM,CON,150,trampa,,a,0.3209,,396.3268,396.3272,-0.870370369,-0.482407464,0,0,0,,0,127,127,342,1,,,,
,,,,,,dae4eb5d65c7263f0b2480aa,66a626ef09d4e21e1a8894ec,6734d68795d1280205f458cd,2024-11-13_10h41.41.942,Tarea de género gramatical,2024.2.2,Win32,60.24096386,,,,,,,,,,,,,,,,,,,,,,,396.3318,397.3264,l,1,[],[],[],[],[],[],[],0.3189,1,397.3266,397.8273,,,,,,747,FEM,AGR,150,manta,la,a,0.3189,,397.832,397.8338,-0.870370369,-0.482407464,0,0,0,,0,128,128,296,1,,,,
,,,,,,dae4eb5d65c7263f0b2480aa,66a626ef09d4e21e1a8894ec,6734d68795d1280205f458cd,2024-11-13_10h41.41.942,Tarea de género gramatical,2024.2.2,Win32,60.24096386,,,,,,,,,,,,,,,,,,,,,,,397.8365,398.8594,a,1,[],[],[],[],[],[],[],0.3524,1,398.8596,399.3585,,,,,,521,MAS,DIS,150,pozo,la,l,0.3524,,399.3586,399.3588,-0.870370369,-0.482407464,0,0,0,,0,129,129,70,1,,,,
,,,,,,dae4eb5d65c7263f0b2480aa,66a626ef09d4e21e1a8894ec,6734d68795d1280205f458cd,2024-11-13_10h41.41.942,Tarea de género gramatical,2024.2.2,Win32,60.24096386,,,,,,,,,,,,,,,,,,,,,,,399.3616,400.4244,l,1,[],[],[],[],[],[],[],0.3866,1,400.4246,400.9243,,,,,,542,FEM,DIS,150,masa,el,a,0.3866,,400.9243,400.9246,-0.870370369,-0.482407464,0,0,0,,0,130,130,91,1,,,,
,,,,,,dae4eb5d65c7263f0b2480aa,66a626ef09d4e21e1a8894ec,6734d68795d1280205f458cd,2024-11-13_10h41.41.942,Tarea de género gramatical,2024.2.2,Win32,60.24096386,,,,,,,,,,,,,,,,,,,,,,,400.929,402.009,a,1,[],[],[],[],[],[],[],0.4095,1,402.0091,402.5073,,,,,,846,MAS,AGR,150,tesoro,el,l,0.4095,,402.5074,402.5077,-0.870370369,-0.482407464,0,0,0,,0,131,131,395,1,,,,
,,,,,,dae4eb5d65c7263f0b2480aa,66a626ef09d4e21e1a8894ec,6734d68795d1280205f458cd,2024-11-13_10h41.41.942,Tarea de género gramatical,2024.2.2,Win32,60.24096386,,,,,,,,,,,,,,,,,,,,,,,402.5125,403.4729,l,1,[],[],[],[],[],[],[],0.2858,1,403.4729,403.9728,,,,,,872,FEM,DIS,150,rutina,el,a,0.2858,,403.9773,403.9782,-0.870370369,-0.482407464,0,0,0,,0,132,132,421,1,,,,
,,,,,,dae4eb5d65c7263f0b2480aa,66a626ef09d4e21e1a8894ec,6734d68795d1280205f458cd,2024-11-13_10h41.41.942,Tarea de género gramatical,2024.2.2,Win32,60.24096386,,,,,,,,,,,,,,,,,,,,,,,403.9792,404.9558,a,1,[],[],[],[],[],[],[],0.3005,1,404.9559,405.4563,,,,,,568,MAS,CON,150,baúl,,l,0.3005,,405.4564,405.4566,-0.870370369,-0.482407464,0,0,0,,0,133,133,117,1,,,,
,,,,,,dae4eb5d65c7263f0b2480aa,66a626ef09d4e21e1a8894ec,6734d68795d1280205f458cd,2024-11-13_10h41.41.942,Tarea de género gramatical,2024.2.2,Win32,60.24096386,,,,,,,,,,,,,,,,,,,,,,,405.4593,406.4217,a,1,[],[],[],[],[],[],[],0.2853,1,406.4218,406.9218,,,,,,647,MAS,DIS,150,avión,la,l,0.2853,,406.9219,406.922,-0.870370369,-0.482407464,0,0,0,,0,134,134,196,1,,,,
,,,,,,dae4eb5d65c7263f0b2480aa,66a626ef09d4e21e1a8894ec,6734d68795d1280205f458cd,2024-11-13_10h41.41.942,Tarea de género gramatical,2024.2.2,Win32,60.24096386,,,,,,,,,,,,,,,,,,,,,,,406.9252,407.9209,l,1,[],[],[],[],[],[],[],0.3215,1,407.921,408.4208,,,,,,753,FEM,AGR,150,maldad,la,a,0.3215,,408.4209,408.421,-0.870370369,-0.482407464,0,0,0,,0,135,135,302,1,,,,
,,,,,,dae4eb5d65c7263f0b2480aa,66a626ef09d4e21e1a8894ec,6734d68795d1280205f458cd,2024-11-13_10h41.41.942,Tarea de género gramatical,2024.2.2,Win32,60.24096386,,,,,,,,,,,,,,,,,,,,,,,408.4236,409.6202,l,0,[],[],[],[],[],[],[],0.5249,0,409.6214,410.1203,,,,,,539,MAS,DIS,150,maíz,la,l,0.5249,,410.1204,410.1206,-0.870370369,-0.482407464,0,0,0,,0,136,136,88,1,,,,
,,,,,,dae4eb5d65c7263f0b2480aa,66a626ef09d4e21e1a8894ec,6734d68795d1280205f458cd,2024-11-13_10h41.41.942,Tarea de género gramatical,2024.2.2,Win32,60.24096386,,,,,,,,,,,,,,,,,,,,,,,410.1239,411.137,l,1,[],[],[],[],[],[],[],0.3352,1,411.1425,411.6367,,,,,,511,FEM,CON,150,ruta,,a,0.3352,,411.6409,411.6423,-0.870370369,-0.482407464,0,0,0,,0,137,137,60,1,,,,
,,,,,,dae4eb5d65c7263f0b2480aa,66a626ef09d4e21e1a8894ec,6734d68795d1280205f458cd,2024-11-13_10h41.41.942,Tarea de género gramatical,2024.2.2,Win32,60.24096386,,,,,,,,,,,,,,,,,,,,,,,411.6434,412.7857,a,1,[],[],[],[],[],[],[],0.4672,1,412.7859,413.2859,,,,,,772,MAS,CON,150,minuto,,l,0.4672,,413.286,413.2863,-0.870370369,-0.482407464,0,0,0,,0,138,138,321,1,,,,
,,,,,,dae4eb5d65c7263f0b2480aa,66a626ef09d4e21e1a8894ec,6734d68795d1280205f458cd,2024-11-13_10h41.41.942,Tarea de género gramatical,2024.2.2,Win32,60.24096386,,,,,,,,,,,,,,,,,,,,,,,413.2916,414.3845,l,1,[],[],[],[],[],[],[],0.42,1,414.3845,414.8842,,,,,,583,FEM,CON,150,joya,,a,0.42,,414.8843,414.8844,-0.870370369,-0.482407464,0,0,0,,0,139,139,132,1,,,,
,,,,,,dae4eb5d65c7263f0b2480aa,66a626ef09d4e21e1a8894ec,6734d68795d1280205f458cd,2024-11-13_10h41.41.942,Tarea de género gramatical,2024.2.2,Win32,60.24096386,,,,,,,,,,,,,,,,,,,,,,,414.8867,416.2172,l,1,[],[],[],[],[],[],[],0.6522,1,416.2174,416.7168,,,,,,465,FEM,AGR,150,cama,la,a,0.6522,,416.7169,416.717,-0.870370369,-0.482407464,0,0,0,,0,140,140,14,1,,,,
,,,,,,dae4eb5d65c7263f0b2480aa,66a626ef09d4e21e1a8894ec,6734d68795d1280205f458cd,2024-11-13_10h41.41.942,Tarea de género gramatical,2024.2.2,Win32,60.24096386,,,,,,,,,,,,,,,,,,,,,,,416.7208,417.6844,l,1,[],[],[],[],[],[],[],0.2836,1,417.6847,418.1833,,,,,,477,FEM,AGR,150,mesa,la,a,0.2836,,418.1866,418.189,-0.870370369,-0.482407464,0,0,0,,0,141,141,26,1,,,,
,,,,,,dae4eb5d65c7263f0b2480aa,66a626ef09d4e21e1a8894ec,6734d68795d1280205f458cd,2024-11-13_10h41.41.942,Tarea de género gramatical,2024.2.2,Win32,60.24096386,,,,,,,,,,,,,,,,,,,,,,,418.1907,419.1658,a,1,[],[],[],[],[],[],[],0.3012,1,419.1659,419.6664,,,,,,851,MAS,DIS,150,abrigo,la,l,0.3012,,419.6665,419.6668,-0.870370369,-0.482407464,0,0,0,,0,142,142,400,1,,,,
,,,,,,dae4eb5d65c7263f0b2480aa,66a626ef09d4e21e1a8894ec,6734d68795d1280205f458cd,2024-11-13_10h41.41.942,Tarea de género gramatical,2024.2.2,Win32,60.24096386,,,,,,,,,,,,,,,,,,,,,,,419.6714,420.6338,a,1,[],[],[],[],[],[],[],0.2888,1,420.6341,421.1331,,,,,,802,MAS,CON,150,estilo,,l,0.2888,,421.1331,421.1334,-0.870370369,-0.482407464,0,0,0,,0,143,143,351,1,,,,
,,,,,,dae4eb5d65c7263f0b2480aa,66a626ef09d4e21e1a8894ec,6734d68795d1280205f458cd,2024-11-13_10h41.41.942,Tarea de género gramatical,2024.2.2,Win32,60.24096386,,,,,,,,,,,,,,,,,,,,,,,421.1372,422.1816,l,1,[],[],[],[],[],[],[],0.3694,1,422.1817,422.6814,,,,,,663,FEM,AGR,150,magia,la,a,0.3694,,422.6814,422.6816,-0.870370369,-0.482407464,0,0,0,,0,144,144,212,1,,,,
,,,,,,dae4eb5d65c7263f0b2480aa,66a626ef09d4e21e1a8894ec,6734d68795d1280205f458cd,2024-11-13_10h41.41.942,Tarea de género gramatical,2024.2.2,Win32,60.24096386,,,,,,,,,,,,,,,,,,,,,,,422.6846,423.8485,l,1,[],[],[],[],[],[],[],0.4815,1,423.8487,424.3477,,,,,,475,FEM,CON,150,nave,,a,0.4815,,424.3477,424.3479,-0.870370369,-0.482407464,0,0,0,,0,145,145,24,1,,,,
,,,,,,dae4eb5d65c7263f0b2480aa,66a626ef09d4e21e1a8894ec,6734d68795d1280205f458cd,2024-11-13_10h41.41.942,Tarea de género gramatical,2024.2.2,Win32,60.24096386,,,,,,,,,,,,,,,,,,,,,,,424.3498,425.4005,a,1,[],[],[],[],[],[],[],0.3773,1,425.4008,425.8979,,,,,,750,MAS,AGR,150,túnel,el,l,0.3773,,425.9027,425.9043,-0.870370369,-0.482407464,0,0,0,,0,146,146,299,1,,,,
,,,,,,dae4eb5d65c7263f0b2480aa,66a626ef09d4e21e1a8894ec,6734d68795d1280205f458cd,2024-11-13_10h41.41.942,Tarea de género gramatical,2024.2.2,Win32,60.24096386,,,,,,,,,,,,,,,,,,,,,,,425.906,427.2622,a,1,[],[],[],[],[],[],[],0.6835,1,427.2623,427.7632,,,,,,598,MAS,CON,150,surf,,l,0.6835,,427.7633,427.7638,-0.870370369,-0.482407464,0,0,0,,0,147,147,147,1,,,,
,,,,,,dae4eb5d65c7263f0b2480aa,66a626ef09d4e21e1a8894ec,6734d68795d1280205f458cd,2024-11-13_10h41.41.942,Tarea de género gramatical,2024.2.2,Win32,60.24096386,,,,,,,,,,,,,,,,,,,,,,,427.769,428.768,a,1,[],[],[],[],[],[],[],0.3265,1,428.7683,429.2626,,,,,,858,MAS,AGR,150,cheque,el,l,0.3265,,429.2627,429.263,-0.870370369,-0.482407464,0,0,0,,0,148,148,407,1,,,,
,,,,,,dae4eb5d65c7263f0b2480aa,66a626ef09d4e21e1a8894ec,6734d68795d1280205f458cd,2024-11-13_10h41.41.942,Tarea de género gramatical,2024.2.2,Win32,60.24096386,,,,,,,,,,,,,,,,,,,,,,,429.2675,430.1947,a,1,[],[],[],[],[],[],[],0.2499,1,430.1948,430.6948,,,,,,838,MAS,CON,150,empleo,,l,0.2499,,430.695,430.6955,-0.870370369,-0.482407464,0,0,0,,0,149,149,387,1,,,,
,,,,,,dae4eb5d65c7263f0b2480aa,66a626ef09d4e21e1a8894ec,6734d68795d1280205f458cd,2024-11-13_10h41.41.942,Tarea de género gramatical,2024.2.2,Win32,60.24096386,,,,,,,,,,,,,,,,,,,,,,,430.7006,431.695,l,1,[],[],[],[],[],[],[],0.3219,1,431.6953,432.1951,,,,,,507,FEM,AGR,150,moda,la,a,0.3219,,432.202,502.9793,-0.879629629,-0.483333333,0,0,0,space,0,150,150,56,1,70.7235,,,
,,,,,,dae4eb5d65c7263f0b2480aa,66a626ef09d4e21e1a8894ec,6734d68795d1280205f458cd,2024-11-13_10h41.41.942,Tarea de género gramatical,2024.2.2,Win32,60.24096386,,,,,,,,,,,,,,,,,,,,,,,502.984,504.2283,l,1,[],[],[],[],[],[],[],0.5682,1,504.2287,504.7271,,,,,,464,FEM,DIS,150,cara,el,a,0.5682,,504.7272,504.7274,-0.879629629,-0.483333333,0,0,0,,0,151,151,13,1,,,,
,,,,,,dae4eb5d65c7263f0b2480aa,66a626ef09d4e21e1a8894ec,6734d68795d1280205f458cd,2024-11-13_10h41.41.942,Tarea de género gramatical,2024.2.2,Win32,60.24096386,,,,,,,,,,,,,,,,,,,,,,,504.7312,505.7265,a,1,[],[],[],[],[],[],[],0.3256,1,505.7268,506.2264,,,,,,635,MAS,DIS,150,sueño,la,l,0.3256,,506.2264,506.2266,-0.879629629,-0.483333333,0,0,0,,0,152,152,184,1,,,,
,,,,,,dae4eb5d65c7263f0b2480aa,66a626ef09d4e21e1a8894ec,6734d68795d1280205f458cd,2024-11-13_10h41.41.942,Tarea de género gramatical,2024.2.2,Win32,60.24096386,,,,,,,,,,,,,,,,,,,,,,,506.2313,507.2438,a,1,[],[],[],[],[],[],[],0.335,1,507.244,507.7423,,,,,,714,MAS,AGR,150,pollo,el,l,0.335,,507.7424,507.7425,-0.879629629,-0.483333333,0,0,0,,0,153,153,263,1,,,,
,,,,,,dae4eb5d65c7263f0b2480aa,66a626ef09d4e21e1a8894ec,6734d68795d1280205f458cd,2024-11-13_10h41.41.942,Tarea de género gramatical,2024.2.2,Win32,60.24096386,,,,,,,,,,,,,,,,,,,,,,,507.7441,508.7099,l,1,[],[],[],[],[],[],[],0.2915,1,508.7102,509.2087,,,,,,831,FEM,AGR,150,bebida,la,a,0.2915,,509.209,509.2093,-0.879629629,-0.483333333,0,0,0,,0,154,154,380,1,,,,
,,,,,,dae4eb5d65c7263f0b2480aa,66a626ef09d4e21e1a8894ec,6734d68795d1280205f458cd,2024-11-13_10h41.41.942,Tarea de género gramatical,2024.2.2,Win32,60.24096386,,,,,,,,,,,,,,,,,,,,,,,509.2128,510.392,l,1,[],[],[],[],[],[],[],0.5058,1,510.3922,510.8915,,,,,,613,FEM,CON,150,calle,,a,0.5058,,510.8985,510.9015,-0.879629629,-0.483333333,0,0,0,,0,155,155,162,1,,,,
,,,,,,dae4eb5d65c7263f0b2480aa,66a626ef09d4e21e1a8894ec,6734d68795d1280205f458cd,2024-11-13_10h41.41.942,Tarea de género gramatical,2024.2.2,Win32,60.24096386,,,,,,,,,,,,,,,,,,,,,,,510.9042,511.925,l,1,[],[],[],[],[],[],[],0.3518,1,511.9252,512.4237,,,,,,614,FEM,DIS,150,novia,el,a,0.3518,,512.4237,512.4239,-0.879629629,-0.483333333,0,0,0,,0,156,156,163,1,,,,
,,,,,,dae4eb5d65c7263f0b2480aa,66a626ef09d4e21e1a8894ec,6734d68795d1280205f458cd,2024-11-13_10h41.41.942,Tarea de género gramatical,2024.2.2,Win32,60.24096386,,,,,,,,,,,,,,,,,,,,,,,512.4277,513.4402,l,1,[],[],[],[],[],[],[],0.3382,1,513.4404,513.9396,,,,,,699,FEM,AGR,150,crema,la,a,0.3382,,513.9397,513.9399,-0.879629629,-0.483333333,0,0,0,,0,157,157,248,1,,,,
,,,,,,dae4eb5d65c7263f0b2480aa,66a626ef09d4e21e1a8894ec,6734d68795d1280205f458cd,2024-11-13_10h41.41.942,Tarea de género gramatical,2024.2.2,Win32,60.24096386,,,,,,,,,,,,,,,,,,,,,,,513.9431,514.9891,a,1,[],[],[],[],[],[],[],0.3708,1,514.9892,515.4895,,,,,,682,MAS,CON,150,calor,,l,0.3708,,515.4895,515.49,-0.879629629,-0.483333333,0,0,0,,0,158,158,231,1,,,,
,,,,,,dae4eb5d65c7263f0b2480aa,66a626ef09d4e21e1a8894ec,6734d68795d1280205f458cd,2024-11-13_10h41.41.942,Tarea de género gramatical,2024.2.2,Win32,60.24096386,,,,,,,,,,,,,,,,,,,,,,,515.4954,516.5052,a,1,[],[],[],[],[],[],[],0.3341,1,516.5054,517.0048,,,,,,526,MAS,CON,150,lujo,,l,0.3341,,517.0098,517.0123,-0.879629629,-0.483333333,0,0,0,,0,159,159,75,1,,,,
,,,,,,dae4eb5d65c7263f0b2480aa,66a626ef09d4e21e1a8894ec,6734d68795d1280205f458cd,2024-11-13_10h41.41.942,Tarea de género gramatical,2024.2.2,Win32,60.24096386,,,,,,,,,,,,,,,,,,,,,,,517.014,518.0553,a,1,[],[],[],[],[],[],[],0.3688,1,518.0555,518.5544,,,,,,893,MAS,DIS,150,templo,la,l,0.3688,,518.5545,518.5548,-0.879629629,-0.483333333,0,0,0,,0,160,160,442,1,,,,
,,,,,,dae4eb5d65c7263f0b2480aa,66a626ef09d4e21e1a8894ec,6734d68795d1280205f458cd,2024-11-13_10h41.41.942,Tarea de género gramatical,2024.2.2,Win32,60.24096386,,,,,,,,,,,,,,,,,,,,,,,518.5587,519.6045,a,1,[],[],[],[],[],[],[],0.3684,1,519.6049,520.1041,,,,,,827,MAS,DIS,150,jardín,la,l,0.3684,,520.1042,520.1046,-0.879629629,-0.483333333,0,0,0,,0,161,161,376,1,,,,
,,,,,,dae4eb5d65c7263f0b2480aa,66a626ef09d4e21e1a8894ec,6734d68795d1280205f458cd,2024-11-13_10h41.41.942,Tarea de género gramatical,2024.2.2,Win32,60.24096386,,,,,,,,,,,,,,,,,,,,,,,520.1083,521.0526,a,1,[],[],[],[],[],[],[],0.2644,1,521.0527,521.5528,,,,,,587,MAS,DIS,150,coco,la,l,0.2644,,521.5528,521.553,-0.879629629,-0.483333333,0,0,0,,0,162,162,136,1,,,,
,,,,,,dae4eb5d65c7263f0b2480aa,66a626ef09d4e21e1a8894ec,6734d68795d1280205f458cd,2024-11-13_10h41.41.942,Tarea de género gramatical,2024.2.2,Win32,60.24096386,,,,,,,,,,,,,,,,,,,,,,,521.5553,522.5195,l,1,[],[],[],[],[],[],[],0.2877,1,522.5196,523.0195,,,,,,561,FEM,AGR,150,goma,la,a,0.2877,,523.0196,523.0198,-0.879629629,-0.483333333,0,0,0,,0,163,163,110,1,,,,
,,,,,,dae4eb5d65c7263f0b2480aa,66a626ef09d4e21e1a8894ec,6734d68795d1280205f458cd,2024-11-13_10h41.41.942,Tarea de género gramatical,2024.2.2,Win32,60.24096386,,,,,,,,,,,,,,,,,,,,,,,523.0251,523.9696,a,1,[],[],[],[],[],[],[],0.2694,1,523.9698,524.4695,,,,,,492,MAS,AGR,150,show,el,l,0.2694,,524.477,524.4799,-0.879629629,-0.483333333,0,0,0,,0,164,164,41,1,,,,
,,,,,,dae4eb5d65c7263f0b2480aa,66a626ef09d4e21e1a8894ec,6734d68795d1280205f458cd,2024-11-13_10h41.41.942,Tarea de género gramatical,2024.2.2,Win32,60.24096386,,,,,,,,,,,,,,,,,,,,,,,524.483,525.3782,a,1,[],[],[],[],[],[],[],0.2193,1,525.3785,525.8757,,,,,,606,MAS,AGR,150,amigo,el,l,0.2193,,525.8758,525.876,-0.879629629,-0.483333333,0,0,0,,0,165,165,155,1,,,,
,,,,,,dae4eb5d65c7263f0b2480aa,66a626ef09d4e21e1a8894ec,6734d68795d1280205f458cd,2024-11-13_10h41.41.942,Tarea de género gramatical,2024.2.2,Win32,60.24096386,,,,,,,,,,,,,,,,,,,,,,,525.8779,527.039,l,1,[],[],[],[],[],[],[],0.4953,1,527.0392,527.5385,,,,,,566,FEM,DIS,150,nube,el,a,0.4953,,527.5386,527.5388,-0.879629629,-0.483333333,0,0,0,,0,166,166,115,1,,,,
,,,,,,dae4eb5d65c7263f0b2480aa,66a626ef09d4e21e1a8894ec,6734d68795d1280205f458cd,2024-11-13_10h41.41.942,Tarea de género gramatical,2024.2.2,Win32,60.24096386,,,,,,,,,,,,,,,,,,,,,,,527.5408,528.5924,l,1,[],[],[],[],[],[],[],0.3849,1,528.5926,529.092,,,,,,470,FEM,DIS,150,ropa,el,a,0.3849,,529.0922,529.0925,-0.879629629,-0.483333333,0,0,0,,0,167,167,19,1,,,,
,,,,,,dae4eb5d65c7263f0b2480aa,66a626ef09d4e21e1a8894ec,6734d68795d1280205f458cd,2024-11-13_10h41.41.942,Tarea de género gramatical,2024.2.2,Win32,60.24096386,,,,,,,,,,,,,,,,,,,,,,,529.096,530.0585,l,1,[],[],[],[],[],[],[],0.285,1,530.0585,530.549,,,,,,519,FEM,AGR,150,rata,la,a,0.285,,530.5541,530.5556,-0.879629629,-0.483333333,0,0,0,,0,168,168,68,1,,,,
,,,,,,dae4eb5d65c7263f0b2480aa,66a626ef09d4e21e1a8894ec,6734d68795d1280205f458cd,2024-11-13_10h41.41.942,Tarea de género gramatical,2024.2.2,Win32,60.24096386,,,,,,,,,,,,,,,,,,,,,,,530.5569,531.5913,a,1,[],[],[],[],[],[],[],0.3515,1,531.5915,532.0837,,,,,,678,MAS,AGR,150,nivel,el,l,0.3515,,532.084,532.0852,-0.879629629,-0.483333333,0,0,0,,0,169,169,227,1,,,,
,,,,,,dae4eb5d65c7263f0b2480aa,66a626ef09d4e21e1a8894ec,6734d68795d1280205f458cd,2024-11-13_10h41.41.942,Tarea de género gramatical,2024.2.2,Win32,60.24096386,,,,,,,,,,,,,,,,,,,,,,,532.0884,533.0916,a,1,[],[],[],[],[],[],[],0.3357,1,533.0917,533.5859,,,,,,845,MAS,DIS,150,correo,la,l,0.3357,,533.586,533.5862,-0.879629629,-0.483333333,0,0,0,,0,170,170,394,1,,,,
,,,,,,dae4eb5d65c7263f0b2480aa,66a626ef09d4e21e1a8894ec,6734d68795d1280205f458cd,2024-11-13_10h41.41.942,Tarea de género gramatical,2024.2.2,Win32,60.24096386,,,,,,,,,,,,,,,,,,,,,,,533.5881,534.6222,l,1,[],[],[],[],[],[],[],0.37,1,534.6224,535.1212,,,,,,559,FEM,CON,150,gota,,a,0.37,,535.1214,535.1215,-0.879629629,-0.483333333,0,0,0,,0,171,171,108,1,,,,
,,,,,,dae4eb5d65c7263f0b2480aa,66a626ef09d4e21e1a8894ec,6734d68795d1280205f458cd,2024-11-13_10h41.41.942,Tarea de género gramatical,2024.2.2,Win32,60.24096386,,,,,,,,,,,,,,,,,,,,,,,535.1231,536.1299,l,0,[],[],[],[],[],[],[],0.3237,0,536.1338,536.6185,,,,,,454,MAS,CON,150,hijo,,l,0.3237,,536.6186,536.6189,-0.879629629,-0.483333333,0,0,0,,0,172,172,3,1,,,,
,,,,,,dae4eb5d65c7263f0b2480aa,66a626ef09d4e21e1a8894ec,6734d68795d1280205f458cd,2024-11-13_10h41.41.942,Tarea de género gramatical,2024.2.2,Win32,60.24096386,,,,,,,,,,,,,,,,,,,,,,,536.6216,537.5541,l,1,[],[],[],[],[],[],[],0.2774,1,537.5553,538.0453,,,,,,638,FEM,DIS,150,bomba,el,a,0.2774,,538.0498,538.051,-0.879629629,-0.483333333,0,0,0,,0,173,173,187,1,,,,
,,,,,,dae4eb5d65c7263f0b2480aa,66a626ef09d4e21e1a8894ec,6734d68795d1280205f458cd,2024-11-13_10h41.41.942,Tarea de género gramatical,2024.2.2,Win32,60.24096386,,,,,,,,,,,,,,,,,,,,,,,538.0523,539.1621,a,1,[],[],[],[],[],[],[],0.4332,1,539.1627,539.6617,,,,,,660,MAS,AGR,150,baile,el,l,0.4332,,539.6618,539.6625,-0.879629629,-0.483333333,0,0,0,,0,174,174,209,1,,,,
,,,,,,dae4eb5d65c7263f0b2480aa,66a626ef09d4e21e1a8894ec,6734d68795d1280205f458cd,2024-11-13_10h41.41.942,Tarea de género gramatical,2024.2.2,Win32,60.24096386,,,,,,,,,,,,,,,,,,,,,,,539.6667,540.7374,l,1,[],[],[],[],[],[],[],0.4012,1,540.7376,541.2282,,,,,,656,FEM,DIS,150,época,el,a,0.4012,,541.2287,541.2293,-0.879629629,-0.483333333,0,0,0,,0,175,175,205,1,,,,
,,,,,,dae4eb5d65c7263f0b2480aa,66a626ef09d4e21e1a8894ec,6734d68795d1280205f458cd,2024-11-13_10h41.41.942,Tarea de género gramatical,2024.2.2,Win32,60.24096386,,,,,,,,,,,,,,,,,,,,,,,541.2331,542.318,a,1,[],[],[],[],[],[],[],0.4003,1,542.3181,542.8114,,,,,,773,MAS,DIS,150,marido,la,l,0.4003,,542.8117,542.813,-0.879629629,-0.483333333,0,0,0,,0,176,176,322,1,,,,
,,,,,,dae4eb5d65c7263f0b2480aa,66a626ef09d4e21e1a8894ec,6734d68795d1280205f458cd,2024-11-13_10h41.41.942,Tarea de género gramatical,2024.2.2,Win32,60.24096386,,,,,,,,,,,,,,,,,,,,,,,542.8166,543.836,l,1,[],[],[],[],[],[],[],0.3516,1,543.8362,544.3339,,,,,,501,FEM,AGR,150,bala,la,a,0.3516,,544.3373,544.3391,-0.879629629,-0.483333333,0,0,0,,0,177,177,50,1,,,,
,,,,,,dae4eb5d65c7263f0b2480aa,66a626ef09d4e21e1a8894ec,6734d68795d1280205f458cd,2024-11-13_10h41.41.942,Tarea de género gramatical,2024.2.2,Win32,60.24096386,,,,,,,,,,,,,,,,,,,,,,,544.3412,545.3843,a,1,[],[],[],[],[],[],[],0.3774,1,545.3845,545.8756,,,,,,724,MAS,CON,150,motor,,l,0.3774,,545.876,545.8774,-0.879629629,-0.483333333,0,0,0,,0,178,178,273,1,,,,
,,,,,,dae4eb5d65c7263f0b2480aa,66a626ef09d4e21e1a8894ec,6734d68795d1280205f458cd,2024-11-13_10h41.41.942,Tarea de género gramatical,2024.2.2,Win32,60.24096386,,,,,,,,,,,,,,,,,,,,,,,545.8803,546.8253,l,1,[],[],[],[],[],[],[],0.2702,1,546.826,547.3175,,,,,,597,FEM,AGR,150,grúa,la,a,0.2702,,547.3178,547.3182,-0.879629629,-0.483333333,0,0,0,,0,179,179,146,1,,,,
,,,,,,dae4eb5d65c7263f0b2480aa,66a626ef09d4e21e1a8894ec,6734d68795d1280205f458cd,2024-11-13_10h41.41.942,Tarea de género gramatical,2024.2.2,Win32,60.24096386,,,,,,,,,,,,,,,,,,,,,,,547.3212,548.3168,a,1,[],[],[],[],[],[],[],0.3271,1,548.3169,548.8152,,,,,,808,MAS,CON,150,motivo,,l,0.3271,,548.8154,548.8155,-0.879629629,-0.483333333,0,0,0,,0,180,180,357,1,,,,
,,,,,,dae4eb5d65c7263f0b2480aa,66a626ef09d4e21e1a8894ec,6734d68795d1280205f458cd,2024-11-13_10h41.41.942,Tarea de género gramatical,2024.2.2,Win32,60.24096386,,,,,,,,,,,,,,,,,,,,,,,548.8174,549.8815,a,1,[],[],[],[],[],[],[],0.3861,1,549.8817,550.3753,,,,,,803,MAS,DIS,150,verano,la,l,0.3861,,550.3769,550.3772,-0.879629629,-0.483333333,0,0,0,,0,181,181,352,1,,,,
,,,,,,dae4eb5d65c7263f0b2480aa,66a626ef09d4e21e1a8894ec,6734d68795d1280205f458cd,2024-11-13_10h41.41.942,Tarea de género gramatical,2024.2.2,Win32,60.24096386,,,,,,,,,,,,,,,,,,,,,,,550.3791,551.423,a,0,[],[],[],[],[],[],[],0.3704,0,551.4276,551.9304,,,,,,685,FEM,CON,150,torre,,a,0.3704,,551.9325,551.9337,-0.879629629,-0.483333333,0,0,0,,0,182,182,234,1,,,,
,,,,,,dae4eb5d65c7263f0b2480aa,66a626ef09d4e21e1a8894ec,6734d68795d1280205f458cd,2024-11-13_10h41.41.942,Tarea de género gramatical,2024.2.2,Win32,60.24096386,,,,,,,,,,,,,,,,,,,,,,,551.935,552.9586,a,1,[],[],[],[],[],[],[],0.3453,1,552.9609,553.4551,,,,,,611,MAS,DIS,150,chico,la,l,0.3453,,553.4556,553.4565,-0.879629629,-0.483333333,0,0,0,,0,183,183,160,1,,,,
,,,,,,dae4eb5d65c7263f0b2480aa,66a626ef09d4e21e1a8894ec,6734d68795d1280205f458cd,2024-11-13_10h41.41.942,Tarea de género gramatical,2024.2.2,Win32,60.24096386,,,,,,,,,,,,,,,,,,,,,,,553.4598,554.4465,l,1,[],[],[],[],[],[],[],0.3176,1,554.4466,554.9378,,,,,,805,FEM,CON,150,mirada,,a,0.3176,,554.938,554.9388,-0.879629629,-0.483333333,0,0,0,,0,184,184,354,1,,,,
,,,,,,dae4eb5d65c7263f0b2480aa,66a626ef09d4e21e1a8894ec,6734d68795d1280205f458cd,2024-11-13_10h41.41.942,Tarea de género gramatical,2024.2.2,Win32,60.24096386,,,,,,,,,,,,,,,,,,,,,,,554.9425,556.0469,a,0,[],[],[],[],[],[],[],0.4274,0,556.049,556.5443,,,,,,602,FEM,DIS,150,gente,el,a,0.4274,,556.5445,556.5446,-0.879629629,-0.483333333,0,0,0,,0,185,185,151,1,,,,
,,,,,,dae4eb5d65c7263f0b2480aa,66a626ef09d4e21e1a8894ec,6734d68795d1280205f458cd,2024-11-13_10h41.41.942,Tarea de género gramatical,2024.2.2,Win32,60.24096386,,,,,,,,,,,,,,,,,,,,,,,556.5464,558.1116,a,1,[],[],[],[],[],[],[],0.8839,1,558.113,558.6029,,,,,,666,MAS,AGR,150,éxito,el,l,0.8839,,558.6074,558.6081,-0.879629629,-0.483333333,0,0,0,,0,186,186,215,1,,,,
,,,,,,dae4eb5d65c7263f0b2480aa,66a626ef09d4e21e1a8894ec,6734d68795d1280205f458cd,2024-11-13_10h41.41.942,Tarea de género gramatical,2024.2.2,Win32,60.24096386,,,,,,,,,,,,,,,,,,,,,,,558.6087,559.5951,l,1,[],[],[],[],[],[],[],0.3013,1,559.5953,560.0943,,,,,,585,FEM,AGR,150,raíz,la,a,0.3013,,560.0944,560.0946,-0.879629629,-0.483333333,0,0,0,,0,187,187,134,1,,,,
,,,,,,dae4eb5d65c7263f0b2480aa,66a626ef09d4e21e1a8894ec,6734d68795d1280205f458cd,2024-11-13_10h41.41.942,Tarea de género gramatical,2024.2.2,Win32,60.24096386,,,,,,,,,,,,,,,,,,,,,,,560.0977,561.0434,l,1,[],[],[],[],[],[],[],0.2674,1,561.0435,561.5423,,,,,,675,FEM,AGR,150,pieza,la,a,0.2674,,561.5424,561.5426,-0.879629629,-0.483333333,0,0,0,,0,188,188,224,1,,,,
,,,,,,dae4eb5d65c7263f0b2480aa,66a626ef09d4e21e1a8894ec,6734d68795d1280205f458cd,2024-11-13_10h41.41.942,Tarea de género gramatical,2024.2.2,Win32,60.24096386,,,,,,,,,,,,,,,,,,,,,,,561.5441,562.7595,a,1,[],[],[],[],[],[],[],0.5342,1,562.7597,563.2512,,,,,,580,MAS,CON,150,yate,,l,0.5342,,563.2516,563.2533,-0.879629629,-0.483333333,0,0,0,,0,189,189,129,1,,,,
,,,,,,dae4eb5d65c7263f0b2480aa,66a626ef09d4e21e1a8894ec,6734d68795d1280205f458cd,2024-11-13_10h41.41.942,Tarea de género gramatical,2024.2.2,Win32,60.24096386,,,,,,,,,,,,,,,,,,,,,,,563.256,564.1842,a,1,[],[],[],[],[],[],[],0.257,1,564.1849,564.692,,,,,,623,MAS,DIS,150,libro,la,l,0.257,,564.6921,564.6929,-0.879629629,-0.483333333,0,0,0,,0,190,190,172,1,,,,
,,,,,,dae4eb5d65c7263f0b2480aa,66a626ef09d4e21e1a8894ec,6734d68795d1280205f458cd,2024-11-13_10h41.41.942,Tarea de género gramatical,2024.2.2,Win32,60.24096386,,,,,,,,,,,,,,,,,,,,,,,564.6954,565.6931,l,1,[],[],[],[],[],[],[],0.3185,1,565.6933,566.1903,,,,,,627,FEM,AGR,150,broma,la,a,0.3185,,566.1924,566.1935,-0.879629629,-0.483333333,0,0,0,,0,191,191,176,1,,,,
,,,,,,dae4eb5d65c7263f0b2480aa,66a626ef09d4e21e1a8894ec,6734d68795d1280205f458cd,2024-11-13_10h41.41.942,Tarea de género gramatical,2024.2.2,Win32,60.24096386,,,,,,,,,,,,,,,,,,,,,,,566.1946,567.2077,a,1,[],[],[],[],[],[],[],0.346,1,567.2079,567.7052,,,,,,653,MAS,DIS,150,novio,la,l,0.346,,567.7052,567.7053,-0.879629629,-0.483333333,0,0,0,,0,192,192,202,1,,,,
,,,,,,dae4eb5d65c7263f0b2480aa,66a626ef09d4e21e1a8894ec,6734d68795d1280205f458cd,2024-11-13_10h41.41.942,Tarea de género gramatical,2024.2.2,Win32,60.24096386,,,,,,,,,,,,,,,,,,,,,,,567.7065,568.7039,l,1,[],[],[],[],[],[],[],0.3133,1,568.7041,569.1979,,,,,,487,FEM,CON,150,sala,,a,0.3133,,569.1982,569.1994,-0.879629629,-0.483333333,0,0,0,,0,193,193,36,1,,,,
,,,,,,dae4eb5d65c7263f0b2480aa,66a626ef09d4e21e1a8894ec,6734d68795d1280205f458cd,2024-11-13_10h41.41.942,Tarea de género gramatical,2024.2.2,Win32,60.24096386,,,,,,,,,,,,,,,,,,,,,,,569.203,570.3053,l,0,[],[],[],[],[],[],[],0.4331,0,570.3067,570.7973,,,,,,840,MAS,AGR,150,rostro,el,l,0.4331,,570.7975,570.7989,-0.879629629,-0.483333333,0,0,0,,0,194,194,389,1,,,,
,,,,,,dae4eb5d65c7263f0b2480aa,66a626ef09d4e21e1a8894ec,6734d68795d1280205f458cd,2024-11-13_10h41.41.942,Tarea de género gramatical,2024.2.2,Win32,60.24096386,,,,,,,,,,,,,,,,,,,,,,,570.8019,571.6717,l,1,[],[],[],[],[],[],[],0.2004,1,571.673,572.1707,,,,,,584,FEM,DIS,150,rama,el,a,0.2004,,572.1722,572.173,-0.879629629,-0.483333333,0,0,0,,0,195,195,133,1,,,,
,,,,,,dae4eb5d65c7263f0b2480aa,66a626ef09d4e21e1a8894ec,6734d68795d1280205f458cd,2024-11-13_10h41.41.942,Tarea de género gramatical,2024.2.2,Win32,60.24096386,,,,,,,,,,,,,,,,,,,,,,,572.174,573.1574,l,1,[],[],[],[],[],[],[],0.3117,1,573.1576,573.6534,,,,,,849,FEM,AGR,150,charla,la,a,0.3117,,573.6535,573.6538,-0.879629629,-0.483333333,0,0,0,,0,196,196,398,1,,,,
,,,,,,dae4eb5d65c7263f0b2480aa,66a626ef09d4e21e1a8894ec,6734d68795d1280205f458cd,2024-11-13_10h41.41.942,Tarea de género gramatical,2024.2.2,Win32,60.24096386,,,,,,,,,,,,,,,,,,,,,,,573.6551,574.7882,a,1,[],[],[],[],[],[],[],0.4609,1,574.7884,575.279,,,,,,556,MAS,CON,150,test,,l,0.4609,,575.2795,575.2804,-0.879629629,-0.483333333,0,0,0,,0,197,197,105,1,,,,
,,,,,,dae4eb5d65c7263f0b2480aa,66a626ef09d4e21e1a8894ec,6734d68795d1280205f458cd,2024-11-13_10h41.41.942,Tarea de género gramatical,2024.2.2,Win32,60.24096386,,,,,,,,,,,,,,,,,,,,,,,575.2841,576.2858,l,1,[],[],[],[],[],[],[],0.3165,1,576.2859,576.7776,,,,,,890,FEM,DIS,150,patada,el,a,0.3165,,576.7777,576.7778,-0.879629629,-0.483333333,0,0,0,,0,198,198,439,1,,,,
,,,,,,dae4eb5d65c7263f0b2480aa,66a626ef09d4e21e1a8894ec,6734d68795d1280205f458cd,2024-11-13_10h41.41.942,Tarea de género gramatical,2024.2.2,Win32,60.24096386,,,,,,,,,,,,,,,,,,,,,,,576.7821,577.8706,l,1,[],[],[],[],[],[],[],0.4184,1,577.8709,578.3684,,,,,,873,FEM,AGR,150,poesía,la,a,0.4184,,578.3685,578.3687,-0.879629629,-0.483333333,0,0,0,,0,199,199,422,1,,,,
,,,,,,dae4eb5d65c7263f0b2480aa,66a626ef09d4e21e1a8894ec,6734d68795d1280205f458cd,2024-11-13_10h41.41.942,Tarea de género gramatical,2024.2.2,Win32,60.24096386,,,,,,,,,,,,,,,,,,,,,,,578.3701,579.3538,l,1,[],[],[],[],[],[],[],0.315,1,579.3541,579.8463,,,,,,883,FEM,CON,150,huella,,a,0.315,,579.8526,579.8555,-0.879629629,-0.483333333,0,0,0,,0,200,200,432,1,,,,
,,,,,,dae4eb5d65c7263f0b2480aa,66a626ef09d4e21e1a8894ec,6734d68795d1280205f458cd,2024-11-13_10h41.41.942,Tarea de género gramatical,2024.2.2,Win32,60.24096386,,,,,,,,,,,,,,,,,,,,,,,579.8591,580.9029,l,1,[],[],[],[],[],[],[],0.3682,1,580.9031,581.3923,,,,,,686,FEM,DIS,150,deuda,el,a,0.3682,,581.3923,581.3925,-0.879629629,-0.483333333,0,0,0,,0,201,201,235,1,,,,
,,,,,,dae4eb5d65c7263f0b2480aa,66a626ef09d4e21e1a8894ec,6734d68795d1280205f458cd,2024-11-13_10h41.41.942,Tarea de género gramatical,2024.2.2,Win32,60.24096386,,,,,,,,,,,,,,,,,,,,,,,581.3967,582.3672,l,1,[],[],[],[],[],[],[],0.311,1,582.3673,582.8665,,,,,,716,FEM,DIS,150,jaula,el,a,0.311,,582.8666,582.867,-0.879629629,-0.483333333,0,0,0,,0,202,202,265,1,,,,
,,,,,,dae4eb5d65c7263f0b2480aa,66a626ef09d4e21e1a8894ec,6734d68795d1280205f458cd,2024-11-13_10h41.41.942,Tarea de género gramatical,2024.2.2,Win32,60.24096386,,,,,,,,,,,,,,,,,,,,,,,582.8699,583.867,l,1,[],[],[],[],[],[],[],0.3174,1,583.8672,584.3652,,,,,,697,FEM,CON,150,frase,,a,0.3174,,584.3653,584.3655,-0.879629629,-0.483333333,0,0,0,,0,203,203,246,1,,,,
,,,,,,dae4eb5d65c7263f0b2480aa,66a626ef09d4e21e1a8894ec,6734d68795d1280205f458cd,2024-11-13_10h41.41.942,Tarea de género gramatical,2024.2.2,Win32,60.24096386,,,,,,,,,,,,,,,,,,,,,,,584.3672,585.3175,l,1,[],[],[],[],[],[],[],0.2685,1,585.3177,585.8147,,,,,,471,FEM,AGR,150,boca,la,a,0.2685,,585.8169,585.818,-0.879629629,-0.483333333,0,0,0,,0,204,204,20,1,,,,
,,,,,,dae4eb5d65c7263f0b2480aa,66a626ef09d4e21e1a8894ec,6734d68795d1280205f458cd,2024-11-13_10h41.41.942,Tarea de género gramatical,2024.2.2,Win32,60.24096386,,,,,,,,,,,,,,,,,,,,,,,585.8192,586.8148,a,1,[],[],[],[],[],[],[],0.3281,1,586.815,587.3138,,,,,,862,MAS,CON,150,espejo,,l,0.3281,,587.3139,587.3141,-0.879629629,-0.483333333,0,0,0,,0,205,205,411,1,,,,
,,,,,,dae4eb5d65c7263f0b2480aa,66a626ef09d4e21e1a8894ec,6734d68795d1280205f458cd,2024-11-13_10h41.41.942,Tarea de género gramatical,2024.2.2,Win32,60.24096386,,,,,,,,,,,,,,,,,,,,,,,587.3161,588.4801,l,1,[],[],[],[],[],[],[],0.4833,1,588.4802,588.9772,,,,,,823,FEM,CON,150,lluvia,,a,0.4833,,588.9772,588.9774,-0.879629629,-0.483333333,0,0,0,,0,206,206,372,1,,,,
,,,,,,dae4eb5d65c7263f0b2480aa,66a626ef09d4e21e1a8894ec,6734d68795d1280205f458cd,2024-11-13_10h41.41.942,Tarea de género gramatical,2024.2.2,Win32,60.24096386,,,,,,,,,,,,,,,,,,,,,,,588.9792,589.998,a,1,[],[],[],[],[],[],[],0.3452,1,589.9982,590.4886,,,,,,628,MAS,CON,150,punto,,l,0.3452,,590.489,590.49,-0.879629629,-0.483333333,0,0,0,,0,207,207,177,1,,,,
,,,,,,dae4eb5d65c7263f0b2480aa,66a626ef09d4e21e1a8894ec,6734d68795d1280205f458cd,2024-11-13_10h41.41.942,Tarea de género gramatical,2024.2.2,Win32,60.24096386,,,,,,,,,,,,,,,,,,,,,,,590.4935,591.5315,a,1,[],[],[],[],[],[],[],0.3691,1,591.5317,592.0281,,,,,,785,MAS,DIS,150,montón,la,l,0.3691,,592.0281,592.0284,-0.879629629,-0.483333333,0,0,0,,0,208,208,334,1,,,,
,,,,,,dae4eb5d65c7263f0b2480aa,66a626ef09d4e21e1a8894ec,6734d68795d1280205f458cd,2024-11-13_10h41.41.942,Tarea de género gramatical,2024.2.2,Win32,60.24096386,,,,,,,,,,,,,,,,,,,,,,,592.0301,592.947,l,1,[],[],[],[],[],[],[],0.2343,1,592.9472,593.4396,,,,,,573,FEM,AGR,150,tela,la,a,0.2343,,593.4465,593.4494,-0.879629629,-0.483333333,0,0,0,,0,209,209,122,1,,,,
,,,,,,dae4eb5d65c7263f0b2480aa,66a626ef09d4e21e1a8894ec,6734d68795d1280205f458cd,2024-11-13_10h41.41.942,Tarea de género gramatical,2024.2.2,Win32,60.24096386,,,,,,,,,,,,,,,,,,,,,,,593.4515,594.4607,a,1,[],[],[],[],[],[],[],0.3434,1,594.4608,594.958,,,,,,544,MAS,CON,150,cabo,,l,0.3434,,594.958,594.9583,-0.879629629,-0.483333333,0,0,0,,0,210,210,93,1,,,,
,,,,,,dae4eb5d65c7263f0b2480aa,66a626ef09d4e21e1a8894ec,6734d68795d1280205f458cd,2024-11-13_10h41.41.942,Tarea de género gramatical,2024.2.2,Win32,60.24096386,,,,,,,,,,,,,,,,,,,,,,,594.9603,595.9768,l,1,[],[],[],[],[],[],[],0.3505,1,595.9769,596.4751,,,,,,679,FEM,CON,150,celda,,a,0.3505,,596.4753,596.4757,-0.879629629,-0.483333333,0,0,0,,0,211,211,228,1,,,,
,,,,,,dae4eb5d65c7263f0b2480aa,66a626ef09d4e21e1a8894ec,6734d68795d1280205f458cd,2024-11-13_10h41.41.942,Tarea de género gramatical,2024.2.2,Win32,60.24096386,,,,,,,,,,,,,,,,,,,,,,,596.4786,597.3952,l,1,[],[],[],[],[],[],[],0.2515,1,597.3953,597.8906,,,,,,541,FEM,CON,150,hoja,,a,0.2515,,597.8907,597.8909,-0.879629629,-0.483333333,0,0,0,,0,212,212,90,1,,,,
,,,,,,dae4eb5d65c7263f0b2480aa,66a626ef09d4e21e1a8894ec,6734d68795d1280205f458cd,2024-11-13_10h41.41.942,Tarea de género gramatical,2024.2.2,Win32,60.24096386,,,,,,,,,,,,,,,,,,,,,,,597.8935,598.7777,l,1,[],[],[],[],[],[],[],0.2012,1,598.7778,599.2676,,,,,,835,FEM,CON,150,muñeca,,a,0.2012,,599.272,599.2734,-0.879629629,-0.483333333,0,0,0,,0,213,213,384,1,,,,
,,,,,,dae4eb5d65c7263f0b2480aa,66a626ef09d4e21e1a8894ec,6734d68795d1280205f458cd,2024-11-13_10h41.41.942,Tarea de género gramatical,2024.2.2,Win32,60.24096386,,,,,,,,,,,,,,,,,,,,,,,599.2746,600.2539,l,1,[],[],[],[],[],[],[],0.3183,1,600.2542,600.76,,,,,,723,FEM,AGR,150,tarta,la,a,0.3183,,600.7602,600.7606,-0.879629629,-0.483333333,0,0,0,,0,214,214,272,1,,,,
,,,,,,dae4eb5d65c7263f0b2480aa,66a626ef09d4e21e1a8894ec,6734d68795d1280205f458cd,2024-11-13_10h41.41.942,Tarea de género gramatical,2024.2.2,Win32,60.24096386,,,,,,,,,,,,,,,,,,,,,,,600.7634,601.7596,a,0,[],[],[],[],[],[],[],0.3181,0,601.762,602.2496,,,,,,860,FEM,DIS,150,piedad,el,a,0.3181,,602.2497,602.2501,-0.879629629,-0.483333333,0,0,0,,0,215,215,409,1,,,,
,,,,,,dae4eb5d65c7263f0b2480aa,66a626ef09d4e21e1a8894ec,6734d68795d1280205f458cd,2024-11-13_10h41.41.942,Tarea de género gramatical,2024.2.2,Win32,60.24096386,,,,,,,,,,,,,,,,,,,,,,,602.2542,603.1075,l,1,[],[],[],[],[],[],[],0.1932,1,603.1086,603.6063,,,,,,482,FEM,DIS,150,caja,el,a,0.1932,,603.6064,603.6065,-0.879629629,-0.483333333,0,0,0,,0,216,216,31,1,,,,
,,,,,,dae4eb5d65c7263f0b2480aa,66a626ef09d4e21e1a8894ec,6734d68795d1280205f458cd,2024-11-13_10h41.41.942,Tarea de género gramatical,2024.2.2,Win32,60.24096386,,,,,,,,,,,,,,,,,,,,,,,603.6081,604.5654,l,1,[],[],[],[],[],[],[],0.2729,1,604.5661,605.0693,,,,,,637,FEM,CON,150,lista,,a,0.2729,,605.0695,605.0696,-0.879629629,-0.483333333,0,0,0,,0,217,217,186,1,,,,
,,,,,,dae4eb5d65c7263f0b2480aa,66a626ef09d4e21e1a8894ec,6734d68795d1280205f458cd,2024-11-13_10h41.41.942,Tarea de género gramatical,2024.2.2,Win32,60.24096386,,,,,,,,,,,,,,,,,,,,,,,605.0711,606.0378,a,1,[],[],[],[],[],[],[],0.2815,1,606.038,606.5317,,,,,,648,MAS,AGR,150,hotel,el,l,0.2815,,606.5383,606.5408,-0.879629629,-0.483333333,0,0,0,,0,218,218,197,1,,,,
,,,,,,dae4eb5d65c7263f0b2480aa,66a626ef09d4e21e1a8894ec,6734d68795d1280205f458cd,2024-11-13_10h41.41.942,Tarea de género gramatical,2024.2.2,Win32,60.24096386,,,,,,,,,,,,,,,,,,,,,,,606.5434,607.4716,l,1,[],[],[],[],[],[],[],0.2503,1,607.4717,607.9688,,,,,,717,FEM,AGR,150,barba,la,a,0.2503,,607.9689,607.9691,-0.879629629,-0.483333333,0,0,0,,0,219,219,266,1,,,,
,,,,,,dae4eb5d65c7263f0b2480aa,66a626ef09d4e21e1a8894ec,6734d68795d1280205f458cd,2024-11-13_10h41.41.942,Tarea de género gramatical,2024.2.2,Win32,60.24096386,,,,,,,,,,,,,,,,,,,,,,,607.9713,608.9225,a,1,[],[],[],[],[],[],[],0.287,1,608.9227,609.4148,,,,,,742,MAS,CON,150,piano,,l,0.287,,609.4153,609.4163,-0.879629629,-0.483333333,0,0,0,,0,220,220,291,1,,,,
,,,,,,dae4eb5d65c7263f0b2480aa,66a626ef09d4e21e1a8894ec,6734d68795d1280205f458cd,2024-11-13_10h41.41.942,Tarea de género gramatical,2024.2.2,Win32,60.24096386,,,,,,,,,,,,,,,,,,,,,,,609.4185,610.2565,a,0,[],[],[],[],[],[],[],0.1687,0,610.2587,610.7463,,,,,,781,FEM,CON,150,cárcel,,a,0.1687,,610.7465,610.7466,-0.879629629,-0.483333333,0,0,0,,0,221,221,330,1,,,,
,,,,,,dae4eb5d65c7263f0b2480aa,66a626ef09d4e21e1a8894ec,6734d68795d1280205f458cd,2024-11-13_10h41.41.942,Tarea de género gramatical,2024.2.2,Win32,60.24096386,,,,,,,,,,,,,,,,,,,,,,,610.7488,611.9453,a,1,[],[],[],[],[],[],[],0.5178,1,611.9469,612.4457,,,,,,888,MAS,AGR,150,tanque,el,l,0.5178,,612.4478,612.4512,-0.879629629,-0.483333333,0,0,0,,0,222,222,437,1,,,,
,,,,,,dae4eb5d65c7263f0b2480aa,66a626ef09d4e21e1a8894ec,6734d68795d1280205f458cd,2024-11-13_10h41.41.942,Tarea de género gramatical,2024.2.2,Win32,60.24096386,,,,,,,,,,,,,,,,,,,,,,,612.4523,613.4538,a,1,[],[],[],[],[],[],[],0.3353,1,613.4539,613.952,,,,,,690,MAS,AGR,150,ruido,el,l,0.3353,,613.9522,613.9524,-0.879629629,-0.483333333,0,0,0,,0,223,223,239,1,,,,
,,,,,,dae4eb5d65c7263f0b2480aa,66a626ef09d4e21e1a8894ec,6734d68795d1280205f458cd,2024-11-13_10h41.41.942,Tarea de género gramatical,2024.2.2,Win32,60.24096386,,,,,,,,,,,,,,,,,,,,,,,613.9539,614.9369,l,1,[],[],[],[],[],[],[],0.3018,1,614.9371,615.4344,,,,,,512,FEM,DIS,150,sopa,el,a,0.3018,,615.4344,615.4348,-0.879629629,-0.483333333,0,0,0,,0,224,224,61,1,,,,
,,,,,,dae4eb5d65c7263f0b2480aa,66a626ef09d4e21e1a8894ec,6734d68795d1280205f458cd,2024-11-13_10h41.41.942,Tarea de género gramatical,2024.2.2,Win32,60.24096386,,,,,,,,,,,,,,,,,,,,,,,615.4364,616.5852,l,1,[],[],[],[],[],[],[],0.4677,1,616.5853,617.0852,,,,,,763,FEM,CON,150,ciudad,,a,0.4677,,617.0853,617.0858,-0.879629629,-0.483333333,0,0,0,,0,225,225,312,1,,,,
,,,,,,dae4eb5d65c7263f0b2480aa,66a626ef09d4e21e1a8894ec,6734d68795d1280205f458cd,2024-11-13_10h41.41.942,Tarea de género gramatical,2024.2.2,Win32,60.24096386,,,,,,,,,,,,,,,,,,,,,,,617.0888,618.1683,a,1,[],[],[],[],[],[],[],0.4009,1,618.1684,618.6594,,,,,,634,MAS,CON,150,cielo,,l,0.4009,,618.6597,618.6605,-0.879629629,-0.483333333,0,0,0,,0,226,226,183,1,,,,
,,,,,,dae4eb5d65c7263f0b2480aa,66a626ef09d4e21e1a8894ec,6734d68795d1280205f458cd,2024-11-13_10h41.41.942,Tarea de género gramatical,2024.2.2,Win32,60.24096386,,,,,,,,,,,,,,,,,,,,,,,618.6649,619.7334,a,1,[],[],[],[],[],[],[],0.4005,1,619.7336,620.2328,,,,,,882,MAS,AGR,150,océano,el,l,0.4005,,620.2353,620.2364,-0.879629629,-0.483333333,0,0,0,,0,227,227,431,1,,,,
,,,,,,dae4eb5d65c7263f0b2480aa,66a626ef09d4e21e1a8894ec,6734d68795d1280205f458cd,2024-11-13_10h41.41.942,Tarea de género gramatical,2024.2.2,Win32,60.24096386,,,,,,,,,,,,,,,,,,,,,,,620.2374,621.2837,a,1,[],[],[],[],[],[],[],0.3707,1,621.284,621.7819,,,,,,478,MAS,CON,150,club,,l,0.3707,,621.7819,621.782,-0.879629629,-0.483333333,0,0,0,,0,228,228,27,1,,,,
,,,,,,dae4eb5d65c7263f0b2480aa,66a626ef09d4e21e1a8894ec,6734d68795d1280205f458cd,2024-11-13_10h41.41.942,Tarea de género gramatical,2024.2.2,Win32,60.24096386,,,,,,,,,,,,,,,,,,,,,,,621.7837,622.8113,l,1,[],[],[],[],[],[],[],0.3434,1,622.8114,623.3145,,,,,,836,FEM,DIS,150,sombra,el,a,0.3434,,623.3146,623.3148,-0.879629629,-0.483333333,0,0,0,,0,229,229,385,1,,,,
,,,,,,dae4eb5d65c7263f0b2480aa,66a626ef09d4e21e1a8894ec,6734d68795d1280205f458cd,2024-11-13_10h41.41.942,Tarea de género gramatical,2024.2.2,Win32,60.24096386,,,,,,,,,,,,,,,,,,,,,,,623.3163,624.3094,a,1,[],[],[],[],[],[],[],0.3086,1,624.3099,624.8061,,,,,,676,MAS,CON,150,color,,l,0.3086,,624.8062,624.8072,-0.879629629,-0.483333333,0,0,0,,0,230,230,225,1,,,,
,,,,,,dae4eb5d65c7263f0b2480aa,66a626ef09d4e21e1a8894ec,6734d68795d1280205f458cd,2024-11-13_10h41.41.942,Tarea de género gramatical,2024.2.2,Win32,60.24096386,,,,,,,,,,,,,,,,,,,,,,,624.8111,625.8317,a,1,[],[],[],[],[],[],[],0.3512,1,625.8317,626.327,,,,,,497,MAS,DIS,150,olor,la,l,0.3512,,626.3298,626.3315,-0.879629629,-0.483333333,0,0,0,,0,231,231,46,1,,,,
,,,,,,dae4eb5d65c7263f0b2480aa,66a626ef09d4e21e1a8894ec,6734d68795d1280205f458cd,2024-11-13_10h41.41.942,Tarea de género gramatical,2024.2.2,Win32,60.24096386,,,,,,,,,,,,,,,,,,,,,,,626.3333,627.2643,l,1,[],[],[],[],[],[],[],0.2518,1,627.2645,627.7622,,,,,,837,FEM,AGR,150,página,la,a,0.2518,,627.7622,627.7624,-0.879629629,-0.483333333,0,0,0,,0,232,232,386,1,,,,
,,,,,,dae4eb5d65c7263f0b2480aa,66a626ef09d4e21e1a8894ec,6734d68795d1280205f458cd,2024-11-13_10h41.41.942,Tarea de género gramatical,2024.2.2,Win32,60.24096386,,,,,,,,,,,,,,,,,,,,,,,627.7643,628.7136,a,0,[],[],[],[],[],[],[],0.2777,0,628.7154,629.2041,,,,,,705,FEM,AGR,150,tribu,la,a,0.2777,,629.2043,629.2058,-0.879629629,-0.483333333,0,0,0,,0,233,233,254,1,,,,
,,,,,,dae4eb5d65c7263f0b2480aa,66a626ef09d4e21e1a8894ec,6734d68795d1280205f458cd,2024-11-13_10h41.41.942,Tarea de género gramatical,2024.2.2,Win32,60.24096386,,,,,,,,,,,,,,,,,,,,,,,629.2095,630.4131,a,1,[],[],[],[],[],[],[],0.5182,1,630.4149,630.9127,,,,,,696,MAS,AGR,150,humor,el,l,0.5182,,630.9129,630.9135,-0.879629629,-0.483333333,0,0,0,,0,234,234,245,1,,,,
,,,,,,dae4eb5d65c7263f0b2480aa,66a626ef09d4e21e1a8894ec,6734d68795d1280205f458cd,2024-11-13_10h41.41.942,Tarea de género gramatical,2024.2.2,Win32,60.24096386,,,,,,,,,,,,,,,,,,,,,,,630.9172,631.9628,a,1,[],[],[],[],[],[],[],0.3789,1,631.963,632.4608,,,,,,695,MAS,DIS,150,turno,la,l,0.3789,,632.4609,632.4611,-0.879629629,-0.483333333,0,0,0,,0,235,235,244,1,,,,
,,,,,,dae4eb5d65c7263f0b2480aa,66a626ef09d4e21e1a8894ec,6734d68795d1280205f458cd,2024-11-13_10h41.41.942,Tarea de género gramatical,2024.2.2,Win32,60.24096386,,,,,,,,,,,,,,,,,,,,,,,632.4631,633.7602,a,1,[],[],[],[],[],[],[],0.6167,1,633.7604,634.2534,,,,,,538,MAS,CON,150,pavo,,l,0.6167,,634.2587,634.2605,-0.879629629,-0.483333333,0,0,0,,0,236,236,87,1,,,,
,,,,,,dae4eb5d65c7263f0b2480aa,66a626ef09d4e21e1a8894ec,6734d68795d1280205f458cd,2024-11-13_10h41.41.942,Tarea de género gramatical,2024.2.2,Win32,60.24096386,,,,,,,,,,,,,,,,,,,,,,,634.2627,635.4684,l,0,[],[],[],[],[],[],[],0.5402,0,635.4697,635.9683,,,,,,563,MAS,DIS,150,toro,la,l,0.5402,,635.9683,635.9685,-0.879629629,-0.483333333,0,0,0,,0,237,237,112,1,,,,
,,,,,,dae4eb5d65c7263f0b2480aa,66a626ef09d4e21e1a8894ec,6734d68795d1280205f458cd,2024-11-13_10h41.41.942,Tarea de género gramatical,2024.2.2,Win32,60.24096386,,,,,,,,,,,,,,,,,,,,,,,635.972,637.0853,l,1,[],[],[],[],[],[],[],0.4352,1,637.088,637.584,,,,,,489,FEM,AGR,150,luna,la,a,0.4352,,637.584,637.5843,-0.879629629,-0.483333333,0,0,0,,0,238,238,38,1,,,,
,,,,,,dae4eb5d65c7263f0b2480aa,66a626ef09d4e21e1a8894ec,6734d68795d1280205f458cd,2024-11-13_10h41.41.942,Tarea de género gramatical,2024.2.2,Win32,60.24096386,,,,,,,,,,,,,,,,,,,,,,,637.5891,638.6513,a,1,[],[],[],[],[],[],[],0.3865,1,638.6516,639.1503,,,,,,712,MAS,CON,150,video,,l,0.3865,,639.1503,639.1505,-0.879629629,-0.483333333,0,0,0,,0,239,239,261,1,,,,
,,,,,,dae4eb5d65c7263f0b2480aa,66a626ef09d4e21e1a8894ec,6734d68795d1280205f458cd,2024-11-13_10h41.41.942,Tarea de género gramatical,2024.2.2,Win32,60.24096386,,,,,,,,,,,,,,,,,,,,,,,639.1525,640.2504,l,1,[],[],[],[],[],[],[],0.4196,1,640.2506,640.7495,,,,,,578,FEM,DIS,150,leña,el,a,0.4196,,640.7518,640.7543,-0.879629629,-0.483333333,0,0,0,,0,240,240,127,1,,,,
,,,,,,dae4eb5d65c7263f0b2480aa,66a626ef09d4e21e1a8894ec,6734d68795d1280205f458cd,2024-11-13_10h41.41.942,Tarea de género gramatical,2024.2.2,Win32,60.24096386,,,,,,,,,,,,,,,,,,,,,,,640.7551,642.0659,a,1,[],[],[],[],[],[],[],0.6352,1,642.0661,642.5659,,,,,,490,MAS,CON,150,dios,,l,0.6352,,642.5661,642.5664,-0.879629629,-0.483333333,0,0,0,,0,241,241,39,1,,,,
,,,,,,dae4eb5d65c7263f0b2480aa,66a626ef09d4e21e1a8894ec,6734d68795d1280205f458cd,2024-11-13_10h41.41.942,Tarea de género gramatical,2024.2.2,Win32,60.24096386,,,,,,,,,,,,,,,,,,,,,,,642.5712,643.6315,l,1,[],[],[],[],[],[],[],0.3884,1,643.6317,644.1313,,,,,,590,FEM,DIS,150,mula,el,a,0.3884,,644.1314,644.1319,-0.879629629,-0.483333333,0,0,0,,0,242,242,139,1,,,,
,,,,,,dae4eb5d65c7263f0b2480aa,66a626ef09d4e21e1a8894ec,6734d68795d1280205f458cd,2024-11-13_10h41.41.942,Tarea de género gramatical,2024.2.2,Win32,60.24096386,,,,,,,,,,,,,,,,,,,,,,,644.137,645.1811,a,1,[],[],[],[],[],[],[],0.368,1,645.1812,645.68,,,,,,701,MAS,DIS,150,dueño,la,l,0.368,,645.6801,645.6802,-0.879629629,-0.483333333,0,0,0,,0,243,243,250,1,,,,
,,,,,,dae4eb5d65c7263f0b2480aa,66a626ef09d4e21e1a8894ec,6734d68795d1280205f458cd,2024-11-13_10h41.41.942,Tarea de género gramatical,2024.2.2,Win32,60.24096386,,,,,,,,,,,,,,,,,,,,,,,645.6822,646.7811,a,1,[],[],[],[],[],[],[],0.4183,1,646.7813,647.2793,,,,,,550,MAS,CON,150,nido,,l,0.4183,,647.2794,647.2796,-0.879629629,-0.483333333,0,0,0,,0,244,244,99,1,,,,
,,,,,,dae4eb5d65c7263f0b2480aa,66a626ef09d4e21e1a8894ec,6734d68795d1280205f458cd,2024-11-13_10h41.41.942,Tarea de género gramatical,2024.2.2,Win32,60.24096386,,,,,,,,,,,,,,,,,,,,,,,647.2824,648.2629,l,1,[],[],[],[],[],[],[],0.307,1,648.263,648.7634,,,,,,841,FEM,CON,150,altura,,a,0.307,,648.7687,648.7713,-0.879629629,-0.483333333,0,0,0,,0,245,245,390,1,,,,
,,,,,,dae4eb5d65c7263f0b2480aa,66a626ef09d4e21e1a8894ec,6734d68795d1280205f458cd,2024-11-13_10h41.41.942,Tarea de género gramatical,2024.2.2,Win32,60.24096386,,,,,,,,,,,,,,,,,,,,,,,648.7739,649.8122,l,1,[],[],[],[],[],[],[],0.3702,1,649.8122,650.3113,,,,,,764,FEM,DIS,150,señora,el,a,0.3702,,650.3114,650.3116,-0.879629629,-0.483333333,0,0,0,,0,246,246,313,1,,,,
,,,,,,dae4eb5d65c7263f0b2480aa,66a626ef09d4e21e1a8894ec,6734d68795d1280205f458cd,2024-11-13_10h41.41.942,Tarea de género gramatical,2024.2.2,Win32,60.24096386,,,,,,,,,,,,,,,,,,,,,,,650.3162,651.4798,a,1,[],[],[],[],[],[],[],0.492,1,651.4801,651.9781,,,,,,822,MAS,AGR,150,delito,el,l,0.492,,651.9782,651.9785,-0.879629629,-0.483333333,0,0,0,,0,247,247,371,1,,,,
,,,,,,dae4eb5d65c7263f0b2480aa,66a626ef09d4e21e1a8894ec,6734d68795d1280205f458cd,2024-11-13_10h41.41.942,Tarea de género gramatical,2024.2.2,Win32,60.24096386,,,,,,,,,,,,,,,,,,,,,,,651.9821,653.0113,a,1,[],[],[],[],[],[],[],0.3585,1,653.0114,653.511,,,,,,762,MAS,AGR,150,equipo,el,l,0.3585,,653.5111,653.5115,-0.879629629,-0.483333333,0,0,0,,0,248,248,311,1,,,,
,,,,,,dae4eb5d65c7263f0b2480aa,66a626ef09d4e21e1a8894ec,6734d68795d1280205f458cd,2024-11-13_10h41.41.942,Tarea de género gramatical,2024.2.2,Win32,60.24096386,,,,,,,,,,,,,,,,,,,,,,,653.5168,654.4772,a,1,[],[],[],[],[],[],[],0.2851,1,654.4774,654.977,,,,,,791,MAS,DIS,150,precio,la,l,0.2851,,654.9826,654.9853,-0.879629629,-0.483333333,0,0,0,,0,249,249,340,1,,,,
,,,,,,dae4eb5d65c7263f0b2480aa,66a626ef09d4e21e1a8894ec,6734d68795d1280205f458cd,2024-11-13_10h41.41.942,Tarea de género gramatical,2024.2.2,Win32,60.24096386,,,,,,,,,,,,,,,,,,,,,,,654.9883,656.1933,l,1,[],[],[],[],[],[],[],0.5352,1,656.1936,656.6931,,,,,,531,FEM,AGR,150,cima,la,a,0.5352,,656.6933,656.6936,-0.879629629,-0.483333333,0,0,0,,0,250,250,80,1,,,,
,,,,,,dae4eb5d65c7263f0b2480aa,66a626ef09d4e21e1a8894ec,6734d68795d1280205f458cd,2024-11-13_10h41.41.942,Tarea de género gramatical,2024.2.2,Win32,60.24096386,,,,,,,,,,,,,,,,,,,,,,,656.6983,657.7756,a,1,[],[],[],[],[],[],[],0.4025,1,657.7757,658.2751,,,,,,594,MAS,AGR,150,amor,el,l,0.4025,,658.2752,658.2756,-0.879629629,-0.483333333,0,0,0,,0,251,251,143,1,,,,
