counterbalancing_condition,consent_prescreening.block_1/declare_consent,consent_prescreening.block_1/age_years,consent_prescreening.block_1/gender,consent_prescreening.block_1/language_disorder,consent_prescreening.block_1/first_language,PROLIFIC_PID,STUDY_ID,SESSION_ID,date,expName,psychopyVersion,OS,frameRate,check_prescreening_answers.started,check_prescreening_answers.stopped,Instructions.started,Instructions.stopped,instr_done_keyboard.keys,instr_done_touch.x,instr_done_touch.y,instr_done_touch.leftButton,instr_done_touch.midButton,instr_done_touch.rightButton,instr_done_touch.clicked_name,instruction_pages.thisRepN,instruction_pages.thisTrialN,instruction_pages.thisN,instruction_pages.thisIndex,instruction_pages.ran,pageN,phase,instruct_text,has_image,instruct_image,instr_done_keyboard.rt,instr_done_keyboard.duration,presentTrial.started,presentTrial.stopped,response.keys,response.corr,touch_resp.x,touch_resp.y,touch_resp.leftButton,touch_resp.midButton,touch_resp.rightButton,touch_resp.time,touch_resp.clicked_name,rt,corr,feedback.started,feedback.stopped,practice_trials.thisRepN,practice_trials.thisTrialN,practice_trials.thisN,practice_trials.thisIndex,practice_trials.ran,TrialID,StimulusType,Condition,PrimeDuration,Prime,Flanker,corrAns,response.rt,response.duration,Break.started,Break.stopped,break_done_touch.x,break_done_touch.y,break_done_touch.leftButton,break_done_touch.midButton,break_done_touch.rightButton,break_done_keyboard.keys,experiment_trials.thisRepN,experiment_trials.thisTrialN,experiment_trials.thisN,experiment_trials.thisIndex,experiment_trials.ran,break_done_keyboard.rt,break_done_keyboard.duration,End.started,End.stopped
0,"[""over_18"",""comfortable"",""read_info"",""consent_given""]",34,M,"[""none""]","[""spanish""]",dbf5ef88df93039e1e63c92b,66a626ef09d4e21e1a8894ec,6734b0f433f28e2146fb81e6,2024-11-13_08h06.39.232,Tarea de género gramatical,2024.2.2,MacIntel,59.88023952,,,,,,,,,,,,,,,,,,,,,,,,,,,,,,,,,,,,,,,,,,,,,,,,,,,,,,,,,,,,,,,,,,,,,
,,,,,,dbf5ef88df93039e1e63c92b,66a626ef09d4e21e1a8894ec,6734b0f433f28e2146fb81e6,2024-11-13_08h06.39.232,Tarea de género gramatical,2024.2.2,MacIntel,59.88023952,43.4375,43.4378,,,,,,,,,,,,,,,,,,,,,,,,,,,,,,,,,,,,,,,,,,,,,,,,,,,,,,,,,,,,,,,,,,,
,,,,,,dbf5ef88df93039e1e63c92b,66a626ef09d4e21e1a8894ec,6734b0f433f28e2146fb81e6,2024-11-13_08h06.39.232,Tarea de género gramatical,2024.2.2,MacIntel,59.88023952,,,43.4625,61.783,,0.049627459,-0.437149161,1,0,0,instr_done_button,0,0,0,0,1,1,instructions,"INSTRUCCIONES
Va a realizar una prueba de selección gramatical. Desde el comienzo de la prueba mire siempre al centro de la pantalla. Al cabo de un momento, aparecerán palabras. La tarea consiste en determinar si la palabra del centro (siempre será un sustantivo), pertenece al género masculino o femenino.

Pulse la tecla ESPACIO o toque el botón de abajo para continuar.",0,keyboardresponseFM.png,,,,,,,,,,,,,,,,,,,,,,,,,,,,,,,,,,,,,,,,,,,,,,,,
,,,,,,dbf5ef88df93039e1e63c92b,66a626ef09d4e21e1a8894ec,6734b0f433f28e2146fb81e6,2024-11-13_08h06.39.232,Tarea de género gramatical,2024.2.2,MacIntel,59.88023952,,,61.7856,78.9168,space,0.131380208,-0.262427662,0,0,0,,0,1,1,1,1,2,instructions,"Si su dispositivo tiene teclado, pulse la tecla ""A"" para las palabras en femenino (por ejemplo: ""mano"") y la tecla ""L"" para las palabras en masculino(por ejemplo: ""arroz"").
Pulse la tecla ESPACIO o toque el botón de abajo para continuar.",1,keyboardresponseFM.png,17.076,,,,,,,,,,,,,,,,,,,,,,,,,,,,,,,,,,,,,,,,,,,,,,,
,,,,,,dbf5ef88df93039e1e63c92b,66a626ef09d4e21e1a8894ec,6734b0f433f28e2146fb81e6,2024-11-13_08h06.39.232,Tarea de género gramatical,2024.2.2,MacIntel,59.88023952,,,78.92,84.2663,space,0.131380208,-0.262427662,0,0,0,,0,2,2,2,1,3,instructions,"Si utiliza un dispositivo sólo táctil, colóquelo en horizontal y utilice los botones de la pantalla. No utilice el ratón.
Pulse la tecla ESPACIO o toque el botón de abajo para continuar.",2,touchresponseFM.png,5.2982,,,,,,,,,,,,,,,,,,,,,,,,,,,,,,,,,,,,,,,,,,,,,,,
,,,,,,dbf5ef88df93039e1e63c92b,66a626ef09d4e21e1a8894ec,6734b0f433f28e2146fb81e6,2024-11-13_08h06.39.232,Tarea de género gramatical,2024.2.2,MacIntel,59.88023952,,,84.2693,98.2836,space,0.131380208,-0.262427662,0,0,0,,0,3,3,3,1,4,instructions,"Es muy importante que responda con la mayor rapidez y precisión posibles, ya que cada cadena de letras sólo estará en pantalla durante un instante. Si no responde en ese tiempo, aparecerá el mensaje ""Muy lento"" y el experimento pasará a la siguiente palabra. Los primeros 15 intentos serán de práctica y habrá dos descansos durante la prueba.
Pulse la tecla ESPACIO o toque el botón de abajo para iniciar la parte de práctica.",0,keyboardresponseFM.png,13.9967,,,,,,,,,,,,,,,,,,,,,,,,,,,,,,,,,,,,,,,,,,,,,,,
,,,,,,dbf5ef88df93039e1e63c92b,66a626ef09d4e21e1a8894ec,6734b0f433f28e2146fb81e6,2024-11-13_08h06.39.232,Tarea de género gramatical,2024.2.2,MacIntel,59.88023952,,,,,,,,,,,,,,,,,,,,,,,,98.3039,100.9498,,0,[],[],[],[],[],[],[],,-1,100.9506,101.4507,0,0,0,3,1,2004,FEM,AGR,150,venta,la,a,,,,,,,,,,,,,,,,,,,
,,,,,,dbf5ef88df93039e1e63c92b,66a626ef09d4e21e1a8894ec,6734b0f433f28e2146fb81e6,2024-11-13_08h06.39.232,Tarea de género gramatical,2024.2.2,MacIntel,59.88023952,,,,,,,,,,,,,,,,,,,,,,,,101.4528,102.3336,a,1,[],[],[],[],[],[],[],0.203,1,102.3642,102.8326,0,1,1,7,1,2008,FEM,CON,150,siesta,,a,0.203,,,,,,,,,,,,,,,,,,
,,,,,,dbf5ef88df93039e1e63c92b,66a626ef09d4e21e1a8894ec,6734b0f433f28e2146fb81e6,2024-11-13_08h06.39.232,Tarea de género gramatical,2024.2.2,MacIntel,59.88023952,,,,,,,,,,,,,,,,,,,,,,,,102.8347,104.4326,a,1,[],[],[],[],[],[],[],0.9339,1,104.4327,104.9338,0,2,2,5,1,2006,FEM,DIS,150,serie,el,a,0.9339,,,,,,,,,,,,,,,,,,
,,,,,,dbf5ef88df93039e1e63c92b,66a626ef09d4e21e1a8894ec,6734b0f433f28e2146fb81e6,2024-11-13_08h06.39.232,Tarea de género gramatical,2024.2.2,MacIntel,59.88023952,,,,,,,,,,,,,,,,,,,,,,,,104.9357,106.016,a,0,[],[],[],[],[],[],[],0.4006,0,106.0179,106.5172,0,3,3,12,1,2013,MAS,AGR,150,acero,el,l,0.4006,,,,,,,,,,,,,,,,,,
,,,,,,dbf5ef88df93039e1e63c92b,66a626ef09d4e21e1a8894ec,6734b0f433f28e2146fb81e6,2024-11-13_08h06.39.232,Tarea de género gramatical,2024.2.2,MacIntel,59.88023952,,,,,,,,,,,,,,,,,,,,,,,,106.5191,107.9837,a,0,[],[],[],[],[],[],[],0.7885,0,107.9839,108.4837,0,4,4,14,1,2015,MAS,DIS,150,robot,la,l,0.7885,,,,,,,,,,,,,,,,,,
,,,,,,dbf5ef88df93039e1e63c92b,66a626ef09d4e21e1a8894ec,6734b0f433f28e2146fb81e6,2024-11-13_08h06.39.232,Tarea de género gramatical,2024.2.2,MacIntel,59.88023952,,,,,,,,,,,,,,,,,,,,,,,,108.4857,109.8505,a,0,[],[],[],[],[],[],[],0.6876,0,109.8508,110.3504,0,5,5,11,1,2012,MAS,DIS,150,clima,la,l,0.6876,,,,,,,,,,,,,,,,,,
,,,,,,dbf5ef88df93039e1e63c92b,66a626ef09d4e21e1a8894ec,6734b0f433f28e2146fb81e6,2024-11-13_08h06.39.232,Tarea de género gramatical,2024.2.2,MacIntel,59.88023952,,,,,,,,,,,,,,,,,,,,,,,,110.3523,111.5158,a,1,[],[],[],[],[],[],[],0.4887,1,111.5166,112.0167,0,6,6,6,1,2007,FEM,AGR,150,navaja,la,a,0.4887,,,,,,,,,,,,,,,,,,
,,,,,,dbf5ef88df93039e1e63c92b,66a626ef09d4e21e1a8894ec,6734b0f433f28e2146fb81e6,2024-11-13_08h06.39.232,Tarea de género gramatical,2024.2.2,MacIntel,59.88023952,,,,,,,,,,,,,,,,,,,,,,,,112.0174,113.6331,a,1,[],[],[],[],[],[],[],0.9443,1,113.6332,114.1339,0,7,7,4,1,2005,FEM,CON,150,placa,,a,0.9443,,,,,,,,,,,,,,,,,,
,,,,,,dbf5ef88df93039e1e63c92b,66a626ef09d4e21e1a8894ec,6734b0f433f28e2146fb81e6,2024-11-13_08h06.39.232,Tarea de género gramatical,2024.2.2,MacIntel,59.88023952,,,,,,,,,,,,,,,,,,,,,,,,114.1357,115.3327,l,1,[],[],[],[],[],[],[],0.5281,1,115.3328,115.834,0,8,8,13,1,2014,MAS,CON,150,siglo,,l,0.5281,,,,,,,,,,,,,,,,,,
,,,,,,dbf5ef88df93039e1e63c92b,66a626ef09d4e21e1a8894ec,6734b0f433f28e2146fb81e6,2024-11-13_08h06.39.232,Tarea de género gramatical,2024.2.2,MacIntel,59.88023952,,,,,,,,,,,,,,,,,,,,,,,,115.836,116.9163,l,1,[],[],[],[],[],[],[],0.4019,1,116.9165,117.4173,0,9,9,8,1,2009,MAS,DIS,150,puerto,la,l,0.4019,,,,,,,,,,,,,,,,,,
,,,,,,dbf5ef88df93039e1e63c92b,66a626ef09d4e21e1a8894ec,6734b0f433f28e2146fb81e6,2024-11-13_08h06.39.232,Tarea de género gramatical,2024.2.2,MacIntel,59.88023952,,,,,,,,,,,,,,,,,,,,,,,,117.4191,119.0837,a,1,[],[],[],[],[],[],[],0.9976,1,119.0838,119.583,0,10,10,2,1,2003,FEM,DIS,150,daga,el,a,0.9976,,,,,,,,,,,,,,,,,,
,,,,,,dbf5ef88df93039e1e63c92b,66a626ef09d4e21e1a8894ec,6734b0f433f28e2146fb81e6,2024-11-13_08h06.39.232,Tarea de género gramatical,2024.2.2,MacIntel,59.88023952,,,,,,,,,,,,,,,,,,,,,,,,119.5849,120.7174,l,1,[],[],[],[],[],[],[],0.4524,1,120.7176,121.2167,0,11,11,10,1,2011,MAS,CON,150,canal,,l,0.4524,,,,,,,,,,,,,,,,,,
,,,,,,dbf5ef88df93039e1e63c92b,66a626ef09d4e21e1a8894ec,6734b0f433f28e2146fb81e6,2024-11-13_08h06.39.232,Tarea de género gramatical,2024.2.2,MacIntel,59.88023952,,,,,,,,,,,,,,,,,,,,,,,,121.2185,122.434,l,1,[],[],[],[],[],[],[],0.545,1,122.4341,122.9331,0,12,12,9,1,2010,MAS,AGR,150,vecino,el,l,0.545,,,,,,,,,,,,,,,,,,
,,,,,,dbf5ef88df93039e1e63c92b,66a626ef09d4e21e1a8894ec,6734b0f433f28e2146fb81e6,2024-11-13_08h06.39.232,Tarea de género gramatical,2024.2.2,MacIntel,59.88023952,,,,,,,,,,,,,,,,,,,,,,,,122.935,124.1007,a,1,[],[],[],[],[],[],[],0.5108,1,124.1009,124.6004,0,13,13,0,1,2001,FEM,AGR,150,nuca,la,a,0.5108,,,,,,,,,,,,,,,,,,
,,,,,,dbf5ef88df93039e1e63c92b,66a626ef09d4e21e1a8894ec,6734b0f433f28e2146fb81e6,2024-11-13_08h06.39.232,Tarea de género gramatical,2024.2.2,MacIntel,59.88023952,,,,,,,,,,,,,,,,,,,,,,,,124.6023,126.0504,a,1,[],[],[],[],[],[],[],0.7759,1,126.0505,126.5509,0,14,14,1,1,2002,FEM,CON,150,pala,,a,0.7759,,,,,,,,,,,,,,,,,,
,,,,,,dbf5ef88df93039e1e63c92b,66a626ef09d4e21e1a8894ec,6734b0f433f28e2146fb81e6,2024-11-13_08h06.39.232,Tarea de género gramatical,2024.2.2,MacIntel,59.88023952,,,132.7543,141.1517,space,0.131380208,-0.262427662,0,0,0,,,,,,,,,,,,8.3759,,141.1952,142.4347,l,0,[],[],[],[],[],[],[],0.5785,0,142.4364,142.9347,,,,,,128,FEM,CON,150,leña,,a,0.5785,,142.9353,142.9388,0.131380208,-0.262427662,0,0,0,,0,0,0,127,1,,,,
,,,,,,dbf5ef88df93039e1e63c92b,66a626ef09d4e21e1a8894ec,6734b0f433f28e2146fb81e6,2024-11-13_08h06.39.232,Tarea de género gramatical,2024.2.2,MacIntel,59.88023952,,,,,,,,,,,,,,,,,,,,,,,,142.9401,144.0175,l,0,[],[],[],[],[],[],[],0.3998,0,144.0177,144.5181,,,,,,61,FEM,AGR,150,ruta,la,a,0.3998,,144.5183,144.5185,0.131380208,-0.262427662,0,0,0,,0,1,1,60,1,,,,
,,,,,,dbf5ef88df93039e1e63c92b,66a626ef09d4e21e1a8894ec,6734b0f433f28e2146fb81e6,2024-11-13_08h06.39.232,Tarea de género gramatical,2024.2.2,MacIntel,59.88023952,,,,,,,,,,,,,,,,,,,,,,,,144.5203,145.5515,a,1,[],[],[],[],[],[],[],0.3514,1,145.5533,146.0515,,,,,,243,FEM,DIS,150,salsa,el,a,0.3514,,146.0537,146.0549,0.131380208,-0.262427662,0,0,0,,0,2,2,242,1,,,,
,,,,,,dbf5ef88df93039e1e63c92b,66a626ef09d4e21e1a8894ec,6734b0f433f28e2146fb81e6,2024-11-13_08h06.39.232,Tarea de género gramatical,2024.2.2,MacIntel,59.88023952,,,,,,,,,,,,,,,,,,,,,,,,146.056,147.5015,a,1,[],[],[],[],[],[],[],0.7696,1,147.5017,148.0011,,,,,,205,FEM,AGR,150,reina,la,a,0.7696,,148.0011,148.0012,0.131380208,-0.262427662,0,0,0,,0,3,3,204,1,,,,
,,,,,,dbf5ef88df93039e1e63c92b,66a626ef09d4e21e1a8894ec,6734b0f433f28e2146fb81e6,2024-11-13_08h06.39.232,Tarea de género gramatical,2024.2.2,MacIntel,59.88023952,,,,,,,,,,,,,,,,,,,,,,,,148.0018,149.3511,l,1,[],[],[],[],[],[],[],0.6741,1,149.3513,149.8517,,,,,,317,MAS,CON,150,número,,l,0.6741,,149.8518,149.852,0.131380208,-0.262427662,0,0,0,,0,4,4,316,1,,,,
,,,,,,dbf5ef88df93039e1e63c92b,66a626ef09d4e21e1a8894ec,6734b0f433f28e2146fb81e6,2024-11-13_08h06.39.232,Tarea de género gramatical,2024.2.2,MacIntel,59.88023952,,,,,,,,,,,,,,,,,,,,,,,,149.8538,150.8848,l,1,[],[],[],[],[],[],[],0.35,1,150.885,151.385,,,,,,270,MAS,DIS,150,queso,la,l,0.35,,151.3852,151.3855,0.131380208,-0.262427662,0,0,0,,0,5,5,269,1,,,,
,,,,,,dbf5ef88df93039e1e63c92b,66a626ef09d4e21e1a8894ec,6734b0f433f28e2146fb81e6,2024-11-13_08h06.39.232,Tarea de género gramatical,2024.2.2,MacIntel,59.88023952,,,,,,,,,,,,,,,,,,,,,,,,151.3873,152.618,a,1,[],[],[],[],[],[],[],0.5523,1,152.6182,153.1185,,,,,,122,FEM,CON,150,loca,,a,0.5523,,153.1205,153.1214,0.131380208,-0.262427662,0,0,0,,0,6,6,121,1,,,,
,,,,,,dbf5ef88df93039e1e63c92b,66a626ef09d4e21e1a8894ec,6734b0f433f28e2146fb81e6,2024-11-13_08h06.39.232,Tarea de género gramatical,2024.2.2,MacIntel,59.88023952,,,,,,,,,,,,,,,,,,,,,,,,153.1223,154.3016,a,1,[],[],[],[],[],[],[],0.5019,1,154.3018,154.8018,,,,,,397,FEM,AGR,150,cuerda,la,a,0.5019,,154.8019,154.8021,0.131380208,-0.262427662,0,0,0,,0,7,7,396,1,,,,
,,,,,,dbf5ef88df93039e1e63c92b,66a626ef09d4e21e1a8894ec,6734b0f433f28e2146fb81e6,2024-11-13_08h06.39.232,Tarea de género gramatical,2024.2.2,MacIntel,59.88023952,,,,,,,,,,,,,,,,,,,,,,,,154.8039,155.9185,a,1,[],[],[],[],[],[],[],0.4342,1,155.9186,156.4185,,,,,,91,FEM,AGR,150,hoja,la,a,0.4342,,156.4186,156.4188,0.131380208,-0.262427662,0,0,0,,0,8,8,90,1,,,,
,,,,,,dbf5ef88df93039e1e63c92b,66a626ef09d4e21e1a8894ec,6734b0f433f28e2146fb81e6,2024-11-13_08h06.39.232,Tarea de género gramatical,2024.2.2,MacIntel,59.88023952,,,,,,,,,,,,,,,,,,,,,,,,156.4205,157.5684,l,1,[],[],[],[],[],[],[],0.4676,1,157.5687,158.0686,,,,,,232,MAS,AGR,150,calor,el,l,0.4676,,158.0687,158.069,0.131380208,-0.262427662,0,0,0,,0,9,9,231,1,,,,
,,,,,,dbf5ef88df93039e1e63c92b,66a626ef09d4e21e1a8894ec,6734b0f433f28e2146fb81e6,2024-11-13_08h06.39.232,Tarea de género gramatical,2024.2.2,MacIntel,59.88023952,,,,,,,,,,,,,,,,,,,,,,,,158.0706,159.1185,a,1,[],[],[],[],[],[],[],0.3706,1,159.1188,159.6186,,,,,,27,FEM,DIS,150,mesa,el,a,0.3706,,159.6187,159.619,0.131380208,-0.262427662,0,0,0,,0,10,10,26,1,,,,
,,,,,,dbf5ef88df93039e1e63c92b,66a626ef09d4e21e1a8894ec,6734b0f433f28e2146fb81e6,2024-11-13_08h06.39.232,Tarea de género gramatical,2024.2.2,MacIntel,59.88023952,,,,,,,,,,,,,,,,,,,,,,,,159.6206,160.6686,a,1,[],[],[],[],[],[],[],0.3676,1,160.6687,161.1685,,,,,,429,FEM,DIS,150,fianza,el,a,0.3676,,161.1703,161.1716,0.131380208,-0.262427662,0,0,0,,0,11,11,428,1,,,,
,,,,,,dbf5ef88df93039e1e63c92b,66a626ef09d4e21e1a8894ec,6734b0f433f28e2146fb81e6,2024-11-13_08h06.39.232,Tarea de género gramatical,2024.2.2,MacIntel,59.88023952,,,,,,,,,,,,,,,,,,,,,,,,161.1724,162.1851,l,1,[],[],[],[],[],[],[],0.3337,1,162.1854,162.6853,,,,,,346,MAS,AGR,150,juicio,el,l,0.3337,,162.6854,162.6857,0.131380208,-0.262427662,0,0,0,,0,12,12,345,1,,,,
,,,,,,dbf5ef88df93039e1e63c92b,66a626ef09d4e21e1a8894ec,6734b0f433f28e2146fb81e6,2024-11-13_08h06.39.232,Tarea de género gramatical,2024.2.2,MacIntel,59.88023952,,,,,,,,,,,,,,,,,,,,,,,,162.6874,163.7184,l,1,[],[],[],[],[],[],[],0.3515,1,163.7186,164.2188,,,,,,95,MAS,CON,150,tomo,,l,0.3515,,164.2189,164.219,0.131380208,-0.262427662,0,0,0,,0,13,13,94,1,,,,
,,,,,,dbf5ef88df93039e1e63c92b,66a626ef09d4e21e1a8894ec,6734b0f433f28e2146fb81e6,2024-11-13_08h06.39.232,Tarea de género gramatical,2024.2.2,MacIntel,59.88023952,,,,,,,,,,,,,,,,,,,,,,,,164.2207,165.3519,a,1,[],[],[],[],[],[],[],0.4626,1,165.3521,165.852,,,,,,99,FEM,DIS,150,fase,el,a,0.4626,,165.8521,165.8523,0.131380208,-0.262427662,0,0,0,,0,14,14,98,1,,,,
,,,,,,dbf5ef88df93039e1e63c92b,66a626ef09d4e21e1a8894ec,6734b0f433f28e2146fb81e6,2024-11-13_08h06.39.232,Tarea de género gramatical,2024.2.2,MacIntel,59.88023952,,,,,,,,,,,,,,,,,,,,,,,,165.854,166.8854,l,1,[],[],[],[],[],[],[],0.3508,1,166.8855,167.3851,,,,,,376,MAS,AGR,150,efecto,el,l,0.3508,,167.3871,167.3883,0.131380208,-0.262427662,0,0,0,,0,15,15,375,1,,,,
,,,,,,dbf5ef88df93039e1e63c92b,66a626ef09d4e21e1a8894ec,6734b0f433f28e2146fb81e6,2024-11-13_08h06.39.232,Tarea de género gramatical,2024.2.2,MacIntel,59.88023952,,,,,,,,,,,,,,,,,,,,,,,,167.3894,168.4187,a,1,[],[],[],[],[],[],[],0.3613,1,168.4188,168.9185,,,,,,385,FEM,AGR,150,muñeca,la,a,0.3613,,168.9186,168.9189,0.131380208,-0.262427662,0,0,0,,0,16,16,384,1,,,,
,,,,,,dbf5ef88df93039e1e63c92b,66a626ef09d4e21e1a8894ec,6734b0f433f28e2146fb81e6,2024-11-13_08h06.39.232,Tarea de género gramatical,2024.2.2,MacIntel,59.88023952,,,,,,,,,,,,,,,,,,,,,,,,168.9205,169.9345,a,1,[],[],[],[],[],[],[],0.334,1,169.9347,170.4351,,,,,,13,FEM,AGR,150,hija,la,a,0.334,,170.4353,170.4354,0.131380208,-0.262427662,0,0,0,,0,17,17,12,1,,,,
,,,,,,dbf5ef88df93039e1e63c92b,66a626ef09d4e21e1a8894ec,6734b0f433f28e2146fb81e6,2024-11-13_08h06.39.232,Tarea de género gramatical,2024.2.2,MacIntel,59.88023952,,,,,,,,,,,,,,,,,,,,,,,,170.4372,171.4355,a,1,[],[],[],[],[],[],[],0.3257,1,171.4356,171.9357,,,,,,379,FEM,AGR,150,granja,la,a,0.3257,,171.9357,171.936,0.131380208,-0.262427662,0,0,0,,0,18,18,378,1,,,,
,,,,,,dbf5ef88df93039e1e63c92b,66a626ef09d4e21e1a8894ec,6734b0f433f28e2146fb81e6,2024-11-13_08h06.39.232,Tarea de género gramatical,2024.2.2,MacIntel,59.88023952,,,,,,,,,,,,,,,,,,,,,,,,171.9377,172.9026,a,1,[],[],[],[],[],[],[],0.2958,1,172.9028,173.4023,,,,,,109,FEM,AGR,150,gota,la,a,0.2958,,173.4024,173.4025,0.131380208,-0.262427662,0,0,0,,0,19,19,108,1,,,,
,,,,,,dbf5ef88df93039e1e63c92b,66a626ef09d4e21e1a8894ec,6734b0f433f28e2146fb81e6,2024-11-13_08h06.39.232,Tarea de género gramatical,2024.2.2,MacIntel,59.88023952,,,,,,,,,,,,,,,,,,,,,,,,173.4043,174.4857,l,1,[],[],[],[],[],[],[],0.4037,1,174.4859,174.9856,,,,,,268,MAS,AGR,150,truco,el,l,0.4037,,174.9879,174.9889,0.131380208,-0.262427662,0,0,0,,0,20,20,267,1,,,,
,,,,,,dbf5ef88df93039e1e63c92b,66a626ef09d4e21e1a8894ec,6734b0f433f28e2146fb81e6,2024-11-13_08h06.39.232,Tarea de género gramatical,2024.2.2,MacIntel,59.88023952,,,,,,,,,,,,,,,,,,,,,,,,174.9899,176.119,l,1,[],[],[],[],[],[],[],0.4504,1,176.1191,176.6191,,,,,,358,MAS,AGR,150,motivo,el,l,0.4504,,176.6193,176.6194,0.131380208,-0.262427662,0,0,0,,0,21,21,357,1,,,,
,,,,,,dbf5ef88df93039e1e63c92b,66a626ef09d4e21e1a8894ec,6734b0f433f28e2146fb81e6,2024-11-13_08h06.39.232,Tarea de género gramatical,2024.2.2,MacIntel,59.88023952,,,,,,,,,,,,,,,,,,,,,,,,176.621,177.6023,a,1,[],[],[],[],[],[],[],0.3028,1,177.6025,178.1023,,,,,,236,FEM,CON,150,deuda,,a,0.3028,,178.1024,178.1026,0.131380208,-0.262427662,0,0,0,,0,22,22,235,1,,,,
,,,,,,dbf5ef88df93039e1e63c92b,66a626ef09d4e21e1a8894ec,6734b0f433f28e2146fb81e6,2024-11-13_08h06.39.232,Tarea de género gramatical,2024.2.2,MacIntel,59.88023952,,,,,,,,,,,,,,,,,,,,,,,,178.1043,179.2192,a,1,[],[],[],[],[],[],[],0.4338,1,179.2194,179.7192,,,,,,115,FEM,AGR,150,seda,la,a,0.4338,,179.7192,179.7194,0.131380208,-0.262427662,0,0,0,,0,23,23,114,1,,,,
,,,,,,dbf5ef88df93039e1e63c92b,66a626ef09d4e21e1a8894ec,6734b0f433f28e2146fb81e6,2024-11-13_08h06.39.232,Tarea de género gramatical,2024.2.2,MacIntel,59.88023952,,,,,,,,,,,,,,,,,,,,,,,,179.7211,180.7024,l,0,[],[],[],[],[],[],[],0.3005,0,180.7038,181.2025,,,,,,260,FEM,CON,150,barra,,a,0.3005,,181.2047,181.2058,0.131380208,-0.262427662,0,0,0,,0,24,24,259,1,,,,
,,,,,,dbf5ef88df93039e1e63c92b,66a626ef09d4e21e1a8894ec,6734b0f433f28e2146fb81e6,2024-11-13_08h06.39.232,Tarea de género gramatical,2024.2.2,MacIntel,59.88023952,,,,,,,,,,,,,,,,,,,,,,,,181.2067,182.2692,l,1,[],[],[],[],[],[],[],0.3953,1,182.2706,182.7688,,,,,,185,MAS,CON,150,sueño,,l,0.3953,,182.7689,182.769,0.131380208,-0.262427662,0,0,0,,0,25,25,184,1,,,,
,,,,,,dbf5ef88df93039e1e63c92b,66a626ef09d4e21e1a8894ec,6734b0f433f28e2146fb81e6,2024-11-13_08h06.39.232,Tarea de género gramatical,2024.2.2,MacIntel,59.88023952,,,,,,,,,,,,,,,,,,,,,,,,182.7698,183.7356,a,1,[],[],[],[],[],[],[],0.293,1,183.7358,184.2361,,,,,,1,FEM,AGR,150,casa,la,a,0.293,,184.2361,184.2363,0.131380208,-0.262427662,0,0,0,,0,26,26,0,1,,,,
,,,,,,dbf5ef88df93039e1e63c92b,66a626ef09d4e21e1a8894ec,6734b0f433f28e2146fb81e6,2024-11-13_08h06.39.232,Tarea de género gramatical,2024.2.2,MacIntel,59.88023952,,,,,,,,,,,,,,,,,,,,,,,,184.2379,185.3359,l,1,[],[],[],[],[],[],[],0.4278,1,185.3361,185.836,,,,,,42,MAS,DIS,150,show,la,l,0.4278,,185.8361,185.8363,0.131380208,-0.262427662,0,0,0,,0,27,27,41,1,,,,
,,,,,,dbf5ef88df93039e1e63c92b,66a626ef09d4e21e1a8894ec,6734b0f433f28e2146fb81e6,2024-11-13_08h06.39.232,Tarea de género gramatical,2024.2.2,MacIntel,59.88023952,,,,,,,,,,,,,,,,,,,,,,,,185.8379,186.9185,a,1,[],[],[],[],[],[],[],0.4112,1,186.9187,187.4194,,,,,,146,FEM,CON,150,lana,,a,0.4112,,187.4194,187.4196,0.131380208,-0.262427662,0,0,0,,0,28,28,145,1,,,,
,,,,,,dbf5ef88df93039e1e63c92b,66a626ef09d4e21e1a8894ec,6734b0f433f28e2146fb81e6,2024-11-13_08h06.39.232,Tarea de género gramatical,2024.2.2,MacIntel,59.88023952,,,,,,,,,,,,,,,,,,,,,,,,187.4213,188.586,a,0,[],[],[],[],[],[],[],0.496,0,188.5874,189.0851,,,,,,384,MAS,DIS,150,pedazo,la,l,0.496,,189.0871,189.0884,0.131380208,-0.262427662,0,0,0,,0,29,29,383,1,,,,
,,,,,,dbf5ef88df93039e1e63c92b,66a626ef09d4e21e1a8894ec,6734b0f433f28e2146fb81e6,2024-11-13_08h06.39.232,Tarea de género gramatical,2024.2.2,MacIntel,59.88023952,,,,,,,,,,,,,,,,,,,,,,,,189.0895,190.3352,l,1,[],[],[],[],[],[],[],0.5721,1,190.3364,190.8351,,,,,,66,MAS,DIS,150,muro,la,l,0.5721,,190.8352,190.8354,0.131380208,-0.262427662,0,0,0,,0,30,30,65,1,,,,
,,,,,,dbf5ef88df93039e1e63c92b,66a626ef09d4e21e1a8894ec,6734b0f433f28e2146fb81e6,2024-11-13_08h06.39.232,Tarea de género gramatical,2024.2.2,MacIntel,59.88023952,,,,,,,,,,,,,,,,,,,,,,,,190.8372,192.2852,a,0,[],[],[],[],[],[],[],0.7675,0,192.2867,192.7859,,,,,,330,MAS,DIS,150,estado,la,l,0.7675,,192.786,192.7862,0.131380208,-0.262427662,0,0,0,,0,31,31,329,1,,,,
,,,,,,dbf5ef88df93039e1e63c92b,66a626ef09d4e21e1a8894ec,6734b0f433f28e2146fb81e6,2024-11-13_08h06.39.232,Tarea de género gramatical,2024.2.2,MacIntel,59.88023952,,,,,,,,,,,,,,,,,,,,,,,,192.7875,194.0862,a,1,[],[],[],[],[],[],[],0.6203,1,194.0874,194.5853,,,,,,284,FEM,CON,150,fruta,,a,0.6203,,194.5854,194.5855,0.131380208,-0.262427662,0,0,0,,0,32,32,283,1,,,,
,,,,,,dbf5ef88df93039e1e63c92b,66a626ef09d4e21e1a8894ec,6734b0f433f28e2146fb81e6,2024-11-13_08h06.39.232,Tarea de género gramatical,2024.2.2,MacIntel,59.88023952,,,,,,,,,,,,,,,,,,,,,,,,194.587,195.6197,l,1,[],[],[],[],[],[],[],0.3542,1,195.6198,196.1197,,,,,,269,MAS,CON,150,primo,,l,0.3542,,196.1219,196.1231,0.131380208,-0.262427662,0,0,0,,0,33,33,268,1,,,,
,,,,,,dbf5ef88df93039e1e63c92b,66a626ef09d4e21e1a8894ec,6734b0f433f28e2146fb81e6,2024-11-13_08h06.39.232,Tarea de género gramatical,2024.2.2,MacIntel,59.88023952,,,,,,,,,,,,,,,,,,,,,,,,196.1242,197.1195,l,1,[],[],[],[],[],[],[],0.3221,1,197.1197,197.6197,,,,,,282,MAS,DIS,150,bolso,la,l,0.3221,,197.6198,197.62,0.131380208,-0.262427662,0,0,0,,0,34,34,281,1,,,,
,,,,,,dbf5ef88df93039e1e63c92b,66a626ef09d4e21e1a8894ec,6734b0f433f28e2146fb81e6,2024-11-13_08h06.39.232,Tarea de género gramatical,2024.2.2,MacIntel,59.88023952,,,,,,,,,,,,,,,,,,,,,,,,197.6217,198.7694,l,1,[],[],[],[],[],[],[],0.4668,1,198.7696,199.2699,,,,,,323,MAS,CON,150,marido,,l,0.4668,,199.2699,199.2701,0.131380208,-0.262427662,0,0,0,,0,35,35,322,1,,,,
,,,,,,dbf5ef88df93039e1e63c92b,66a626ef09d4e21e1a8894ec,6734b0f433f28e2146fb81e6,2024-11-13_08h06.39.232,Tarea de género gramatical,2024.2.2,MacIntel,59.88023952,,,,,,,,,,,,,,,,,,,,,,,,199.272,200.3204,l,0,[],[],[],[],[],[],[],0.3793,0,200.322,200.8196,,,,,,140,FEM,CON,150,mula,,a,0.3793,,200.8197,200.8199,0.131380208,-0.262427662,0,0,0,,0,36,36,139,1,,,,
,,,,,,dbf5ef88df93039e1e63c92b,66a626ef09d4e21e1a8894ec,6734b0f433f28e2146fb81e6,2024-11-13_08h06.39.232,Tarea de género gramatical,2024.2.2,MacIntel,59.88023952,,,,,,,,,,,,,,,,,,,,,,,,200.8216,201.9696,l,1,[],[],[],[],[],[],[],0.4761,1,201.971,202.4688,,,,,,125,MAS,CON,150,bate,,l,0.4761,,202.4689,202.469,0.131380208,-0.262427662,0,0,0,,0,37,37,124,1,,,,
,,,,,,dbf5ef88df93039e1e63c92b,66a626ef09d4e21e1a8894ec,6734b0f433f28e2146fb81e6,2024-11-13_08h06.39.232,Tarea de género gramatical,2024.2.2,MacIntel,59.88023952,,,,,,,,,,,,,,,,,,,,,,,,202.4708,203.7527,a,1,[],[],[],[],[],[],[],0.6094,1,203.7529,204.2532,,,,,,387,FEM,DIS,150,página,el,a,0.6094,,204.2552,204.2565,0.131380208,-0.262427662,0,0,0,,0,38,38,386,1,,,,
,,,,,,dbf5ef88df93039e1e63c92b,66a626ef09d4e21e1a8894ec,6734b0f433f28e2146fb81e6,2024-11-13_08h06.39.232,Tarea de género gramatical,2024.2.2,MacIntel,59.88023952,,,,,,,,,,,,,,,,,,,,,,,,204.2574,205.3865,a,1,[],[],[],[],[],[],[],0.4498,1,205.3866,205.8866,,,,,,33,FEM,DIS,150,boda,el,a,0.4498,,205.8867,205.8869,0.131380208,-0.262427662,0,0,0,,0,39,39,32,1,,,,
,,,,,,dbf5ef88df93039e1e63c92b,66a626ef09d4e21e1a8894ec,6734b0f433f28e2146fb81e6,2024-11-13_08h06.39.232,Tarea de género gramatical,2024.2.2,MacIntel,59.88023952,,,,,,,,,,,,,,,,,,,,,,,,205.8886,207.1532,a,1,[],[],[],[],[],[],[],0.5865,1,207.1534,207.6534,,,,,,104,FEM,CON,150,vela,,a,0.5865,,207.6536,207.6537,0.131380208,-0.262427662,0,0,0,,0,40,40,103,1,,,,
,,,,,,dbf5ef88df93039e1e63c92b,66a626ef09d4e21e1a8894ec,6734b0f433f28e2146fb81e6,2024-11-13_08h06.39.232,Tarea de género gramatical,2024.2.2,MacIntel,59.88023952,,,,,,,,,,,,,,,,,,,,,,,,207.6556,209.0866,l,1,[],[],[],[],[],[],[],0.7501,1,209.0868,209.5857,,,,,,155,MAS,CON,150,mundo,,l,0.7501,,209.5859,209.586,0.131380208,-0.262427662,0,0,0,,0,41,41,154,1,,,,
,,,,,,dbf5ef88df93039e1e63c92b,66a626ef09d4e21e1a8894ec,6734b0f433f28e2146fb81e6,2024-11-13_08h06.39.232,Tarea de género gramatical,2024.2.2,MacIntel,59.88023952,,,,,,,,,,,,,,,,,,,,,,,,209.5879,210.7696,a,1,[],[],[],[],[],[],[],0.5012,1,210.7697,211.27,,,,,,75,FEM,DIS,150,caza,el,a,0.5012,,211.2721,211.2733,0.131380208,-0.262427662,0,0,0,,0,42,42,74,1,,,,
,,,,,,dbf5ef88df93039e1e63c92b,66a626ef09d4e21e1a8894ec,6734b0f433f28e2146fb81e6,2024-11-13_08h06.39.232,Tarea de género gramatical,2024.2.2,MacIntel,59.88023952,,,,,,,,,,,,,,,,,,,,,,,,211.2743,212.5035,a,1,[],[],[],[],[],[],[],0.5534,1,212.5036,213.0035,,,,,,116,FEM,CON,150,nube,,a,0.5534,,213.0036,213.0037,0.131380208,-0.262427662,0,0,0,,0,43,43,115,1,,,,
,,,,,,dbf5ef88df93039e1e63c92b,66a626ef09d4e21e1a8894ec,6734b0f433f28e2146fb81e6,2024-11-13_08h06.39.232,Tarea de género gramatical,2024.2.2,MacIntel,59.88023952,,,,,,,,,,,,,,,,,,,,,,,,213.0056,214.1701,l,1,[],[],[],[],[],[],[],0.4956,1,214.1703,214.6702,,,,,,382,MAS,AGR,150,teatro,el,l,0.4956,,214.6704,214.6705,0.131380208,-0.262427662,0,0,0,,0,44,44,381,1,,,,
,,,,,,dbf5ef88df93039e1e63c92b,66a626ef09d4e21e1a8894ec,6734b0f433f28e2146fb81e6,2024-11-13_08h06.39.232,Tarea de género gramatical,2024.2.2,MacIntel,59.88023952,,,,,,,,,,,,,,,,,,,,,,,,214.6721,215.7202,l,1,[],[],[],[],[],[],[],0.3692,1,215.7203,216.2204,,,,,,96,MAS,DIS,150,pato,la,l,0.3692,,216.2205,216.2207,0.131380208,-0.262427662,0,0,0,,0,45,45,95,1,,,,
,,,,,,dbf5ef88df93039e1e63c92b,66a626ef09d4e21e1a8894ec,6734b0f433f28e2146fb81e6,2024-11-13_08h06.39.232,Tarea de género gramatical,2024.2.2,MacIntel,59.88023952,,,,,,,,,,,,,,,,,,,,,,,,216.2225,217.287,a,1,[],[],[],[],[],[],[],0.3838,1,217.287,217.7862,,,,,,237,FEM,DIS,150,ducha,el,a,0.3838,,217.7863,217.7865,0.131380208,-0.262427662,0,0,0,,0,46,46,236,1,,,,
,,,,,,dbf5ef88df93039e1e63c92b,66a626ef09d4e21e1a8894ec,6734b0f433f28e2146fb81e6,2024-11-13_08h06.39.232,Tarea de género gramatical,2024.2.2,MacIntel,59.88023952,,,,,,,,,,,,,,,,,,,,,,,,217.7879,218.837,a,1,[],[],[],[],[],[],[],0.3692,1,218.8373,219.3372,,,,,,404,FEM,CON,150,gloria,,a,0.3692,,219.3392,219.3404,0.131380208,-0.262427662,0,0,0,,0,47,47,403,1,,,,
,,,,,,dbf5ef88df93039e1e63c92b,66a626ef09d4e21e1a8894ec,6734b0f433f28e2146fb81e6,2024-11-13_08h06.39.232,Tarea de género gramatical,2024.2.2,MacIntel,59.88023952,,,,,,,,,,,,,,,,,,,,,,,,219.3416,220.4536,l,1,[],[],[],[],[],[],[],0.447,1,220.4538,220.9537,,,,,,449,MAS,CON,150,payaso,,l,0.447,,220.9538,220.954,0.131380208,-0.262427662,0,0,0,,0,48,48,448,1,,,,
,,,,,,dbf5ef88df93039e1e63c92b,66a626ef09d4e21e1a8894ec,6734b0f433f28e2146fb81e6,2024-11-13_08h06.39.232,Tarea de género gramatical,2024.2.2,MacIntel,59.88023952,,,,,,,,,,,,,,,,,,,,,,,,220.9556,222.4536,l,0,[],[],[],[],[],[],[],0.8169,0,222.4548,222.9537,,,,,,229,FEM,AGR,150,celda,la,a,0.8169,,222.9539,222.954,0.131380208,-0.262427662,0,0,0,,0,49,49,228,1,,,,
,,,,,,dbf5ef88df93039e1e63c92b,66a626ef09d4e21e1a8894ec,6734b0f433f28e2146fb81e6,2024-11-13_08h06.39.232,Tarea de género gramatical,2024.2.2,MacIntel,59.88023952,,,,,,,,,,,,,,,,,,,,,,,,222.9557,224.6539,a,1,[],[],[],[],[],[],[],1.026,1,224.6551,225.1538,,,,,,51,FEM,DIS,150,bala,el,a,1.026,,225.1539,225.1541,0.131380208,-0.262427662,0,0,0,,0,50,50,50,1,,,,
,,,,,,dbf5ef88df93039e1e63c92b,66a626ef09d4e21e1a8894ec,6734b0f433f28e2146fb81e6,2024-11-13_08h06.39.232,Tarea de género gramatical,2024.2.2,MacIntel,59.88023952,,,,,,,,,,,,,,,,,,,,,,,,225.1556,226.2537,a,1,[],[],[],[],[],[],[],0.4269,1,226.2538,226.7537,,,,,,38,FEM,CON,150,obra,,a,0.4269,,226.755,226.7558,0.131380208,-0.262427662,0,0,0,,0,51,51,37,1,,,,
,,,,,,dbf5ef88df93039e1e63c92b,66a626ef09d4e21e1a8894ec,6734b0f433f28e2146fb81e6,2024-11-13_08h06.39.232,Tarea de género gramatical,2024.2.2,MacIntel,59.88023952,,,,,,,,,,,,,,,,,,,,,,,,226.7565,227.9205,a,1,[],[],[],[],[],[],[],0.4949,1,227.9207,228.4207,,,,,,152,FEM,CON,150,gente,,a,0.4949,,228.4208,228.4209,0.131380208,-0.262427662,0,0,0,,0,52,52,151,1,,,,
,,,,,,dbf5ef88df93039e1e63c92b,66a626ef09d4e21e1a8894ec,6734b0f433f28e2146fb81e6,2024-11-13_08h06.39.232,Tarea de género gramatical,2024.2.2,MacIntel,59.88023952,,,,,,,,,,,,,,,,,,,,,,,,228.4225,229.6373,l,1,[],[],[],[],[],[],[],0.5356,1,229.6376,230.1373,,,,,,263,MAS,CON,150,carro,,l,0.5356,,230.1374,230.1376,0.131380208,-0.262427662,0,0,0,,0,53,53,262,1,,,,
,,,,,,dbf5ef88df93039e1e63c92b,66a626ef09d4e21e1a8894ec,6734b0f433f28e2146fb81e6,2024-11-13_08h06.39.232,Tarea de género gramatical,2024.2.2,MacIntel,59.88023952,,,,,,,,,,,,,,,,,,,,,,,,230.1395,231.3873,a,1,[],[],[],[],[],[],[],0.5685,1,231.3874,231.8874,,,,,,447,FEM,DIS,150,lógica,el,a,0.5685,,231.8875,231.8876,0.131380208,-0.262427662,0,0,0,,0,54,54,446,1,,,,
,,,,,,dbf5ef88df93039e1e63c92b,66a626ef09d4e21e1a8894ec,6734b0f433f28e2146fb81e6,2024-11-13_08h06.39.232,Tarea de género gramatical,2024.2.2,MacIntel,59.88023952,,,,,,,,,,,,,,,,,,,,,,,,231.8893,233.1208,a,1,[],[],[],[],[],[],[],0.5532,1,233.121,233.6208,,,,,,279,FEM,DIS,150,selva,el,a,0.5532,,233.6209,233.621,0.131380208,-0.262427662,0,0,0,,0,55,55,278,1,,,,
,,,,,,dbf5ef88df93039e1e63c92b,66a626ef09d4e21e1a8894ec,6734b0f433f28e2146fb81e6,2024-11-13_08h06.39.232,Tarea de género gramatical,2024.2.2,MacIntel,59.88023952,,,,,,,,,,,,,,,,,,,,,,,,233.6227,234.704,l,1,[],[],[],[],[],[],[],0.4119,1,234.7041,235.2041,,,,,,208,MAS,AGR,150,suelo,el,l,0.4119,,235.206,235.2071,0.131380208,-0.262427662,0,0,0,,0,56,56,207,1,,,,
,,,,,,dbf5ef88df93039e1e63c92b,66a626ef09d4e21e1a8894ec,6734b0f433f28e2146fb81e6,2024-11-13_08h06.39.232,Tarea de género gramatical,2024.2.2,MacIntel,59.88023952,,,,,,,,,,,,,,,,,,,,,,,,235.2083,236.4542,a,1,[],[],[],[],[],[],[],0.5793,1,236.4544,236.9535,,,,,,176,FEM,CON,150,línea,,a,0.5793,,236.9536,236.9538,0.131380208,-0.262427662,0,0,0,,0,57,57,175,1,,,,
,,,,,,dbf5ef88df93039e1e63c92b,66a626ef09d4e21e1a8894ec,6734b0f433f28e2146fb81e6,2024-11-13_08h06.39.232,Tarea de género gramatical,2024.2.2,MacIntel,59.88023952,,,,,,,,,,,,,,,,,,,,,,,,236.9555,238.1209,a,1,[],[],[],[],[],[],[],0.4839,1,238.1211,238.621,,,,,,367,FEM,AGR,150,teoría,la,a,0.4839,,238.6211,238.6212,0.131380208,-0.262427662,0,0,0,,0,58,58,366,1,,,,
,,,,,,dbf5ef88df93039e1e63c92b,66a626ef09d4e21e1a8894ec,6734b0f433f28e2146fb81e6,2024-11-13_08h06.39.232,Tarea de género gramatical,2024.2.2,MacIntel,59.88023952,,,,,,,,,,,,,,,,,,,,,,,,238.6228,239.621,a,0,[],[],[],[],[],[],[],0.3169,0,239.622,240.1211,,,,,,424,MAS,AGR,150,rastro,el,l,0.3169,,240.1212,240.1214,0.131380208,-0.262427662,0,0,0,,0,59,59,423,1,,,,
,,,,,,dbf5ef88df93039e1e63c92b,66a626ef09d4e21e1a8894ec,6734b0f433f28e2146fb81e6,2024-11-13_08h06.39.232,Tarea de género gramatical,2024.2.2,MacIntel,59.88023952,,,,,,,,,,,,,,,,,,,,,,,,240.1232,241.421,l,1,[],[],[],[],[],[],[],0.6174,1,241.4227,241.9211,,,,,,336,MAS,DIS,150,crimen,la,l,0.6174,,241.9228,241.9239,0.131380208,-0.262427662,0,0,0,,0,60,60,335,1,,,,
,,,,,,dbf5ef88df93039e1e63c92b,66a626ef09d4e21e1a8894ec,6734b0f433f28e2146fb81e6,2024-11-13_08h06.39.232,Tarea de género gramatical,2024.2.2,MacIntel,59.88023952,,,,,,,,,,,,,,,,,,,,,,,,241.9248,243.0041,a,1,[],[],[],[],[],[],[],0.4048,1,243.0042,243.5035,,,,,,21,FEM,DIS,150,boca,el,a,0.4048,,243.5036,243.5038,0.131380208,-0.262427662,0,0,0,,0,61,61,20,1,,,,
,,,,,,dbf5ef88df93039e1e63c92b,66a626ef09d4e21e1a8894ec,6734b0f433f28e2146fb81e6,2024-11-13_08h06.39.232,Tarea de género gramatical,2024.2.2,MacIntel,59.88023952,,,,,,,,,,,,,,,,,,,,,,,,243.5053,244.721,l,1,[],[],[],[],[],[],[],0.5341,1,244.7211,245.2212,,,,,,414,MAS,DIS,150,sótano,la,l,0.5341,,245.2212,245.2214,0.131380208,-0.262427662,0,0,0,,0,62,62,413,1,,,,
,,,,,,dbf5ef88df93039e1e63c92b,66a626ef09d4e21e1a8894ec,6734b0f433f28e2146fb81e6,2024-11-13_08h06.39.232,Tarea de género gramatical,2024.2.2,MacIntel,59.88023952,,,,,,,,,,,,,,,,,,,,,,,,245.2231,246.3713,l,1,[],[],[],[],[],[],[],0.4689,1,246.3714,246.8712,,,,,,114,MAS,DIS,150,menú,la,l,0.4689,,246.8713,246.8714,0.131380208,-0.262427662,0,0,0,,0,63,63,113,1,,,,
,,,,,,dbf5ef88df93039e1e63c92b,66a626ef09d4e21e1a8894ec,6734b0f433f28e2146fb81e6,2024-11-13_08h06.39.232,Tarea de género gramatical,2024.2.2,MacIntel,59.88023952,,,,,,,,,,,,,,,,,,,,,,,,246.8731,247.9533,a,1,[],[],[],[],[],[],[],0.4014,1,247.9533,248.4546,,,,,,313,FEM,AGR,150,ciudad,la,a,0.4014,,248.4547,248.4548,0.131380208,-0.262427662,0,0,0,,0,64,64,312,1,,,,
,,,,,,dbf5ef88df93039e1e63c92b,66a626ef09d4e21e1a8894ec,6734b0f433f28e2146fb81e6,2024-11-13_08h06.39.232,Tarea de género gramatical,2024.2.2,MacIntel,59.88023952,,,,,,,,,,,,,,,,,,,,,,,,248.4566,249.5213,a,1,[],[],[],[],[],[],[],0.3838,1,249.5215,250.0212,,,,,,267,FEM,DIS,150,barba,el,a,0.3838,,250.0232,250.0243,0.131380208,-0.262427662,0,0,0,,0,65,65,266,1,,,,
,,,,,,dbf5ef88df93039e1e63c92b,66a626ef09d4e21e1a8894ec,6734b0f433f28e2146fb81e6,2024-11-13_08h06.39.232,Tarea de género gramatical,2024.2.2,MacIntel,59.88023952,,,,,,,,,,,,,,,,,,,,,,,,250.0253,251.0879,l,1,[],[],[],[],[],[],[],0.3873,1,251.088,251.5879,,,,,,84,MAS,DIS,150,mago,la,l,0.3873,,251.588,251.5882,0.131380208,-0.262427662,0,0,0,,0,66,66,83,1,,,,
,,,,,,dbf5ef88df93039e1e63c92b,66a626ef09d4e21e1a8894ec,6734b0f433f28e2146fb81e6,2024-11-13_08h06.39.232,Tarea de género gramatical,2024.2.2,MacIntel,59.88023952,,,,,,,,,,,,,,,,,,,,,,,,251.5898,252.6045,a,1,[],[],[],[],[],[],[],0.3458,1,252.6046,253.1047,,,,,,326,FEM,CON,150,música,,a,0.3458,,253.1048,253.1049,0.131380208,-0.262427662,0,0,0,,0,67,67,325,1,,,,
,,,,,,dbf5ef88df93039e1e63c92b,66a626ef09d4e21e1a8894ec,6734b0f433f28e2146fb81e6,2024-11-13_08h06.39.232,Tarea de género gramatical,2024.2.2,MacIntel,59.88023952,,,,,,,,,,,,,,,,,,,,,,,,253.1068,254.2877,a,1,[],[],[],[],[],[],[],0.5047,1,254.2878,254.7878,,,,,,333,FEM,DIS,150,locura,el,a,0.5047,,254.788,254.788,0.131380208,-0.262427662,0,0,0,,0,68,68,332,1,,,,
,,,,,,dbf5ef88df93039e1e63c92b,66a626ef09d4e21e1a8894ec,6734b0f433f28e2146fb81e6,2024-11-13_08h06.39.232,Tarea de género gramatical,2024.2.2,MacIntel,59.88023952,,,,,,,,,,,,,,,,,,,,,,,,254.7894,255.905,l,1,[],[],[],[],[],[],[],0.4462,1,255.9052,256.4048,,,,,,101,MAS,CON,150,giro,,l,0.4462,,256.4067,256.408,0.131380208,-0.262427662,0,0,0,,0,69,69,100,1,,,,
,,,,,,dbf5ef88df93039e1e63c92b,66a626ef09d4e21e1a8894ec,6734b0f433f28e2146fb81e6,2024-11-13_08h06.39.232,Tarea de género gramatical,2024.2.2,MacIntel,59.88023952,,,,,,,,,,,,,,,,,,,,,,,,256.4091,257.3549,a,0,[],[],[],[],[],[],[],0.2668,0,257.3563,257.8548,,,,,,311,MAS,CON,150,camino,,l,0.2668,,257.8549,257.855,0.131380208,-0.262427662,0,0,0,,0,70,70,310,1,,,,
,,,,,,dbf5ef88df93039e1e63c92b,66a626ef09d4e21e1a8894ec,6734b0f433f28e2146fb81e6,2024-11-13_08h06.39.232,Tarea de género gramatical,2024.2.2,MacIntel,59.88023952,,,,,,,,,,,,,,,,,,,,,,,,257.8569,259.0214,a,1,[],[],[],[],[],[],[],0.4858,1,259.0225,259.5217,,,,,,68,FEM,CON,150,pata,,a,0.4858,,259.5218,259.522,0.131380208,-0.262427662,0,0,0,,0,71,71,67,1,,,,
,,,,,,dbf5ef88df93039e1e63c92b,66a626ef09d4e21e1a8894ec,6734b0f433f28e2146fb81e6,2024-11-13_08h06.39.232,Tarea de género gramatical,2024.2.2,MacIntel,59.88023952,,,,,,,,,,,,,,,,,,,,,,,,259.5236,260.9382,a,1,[],[],[],[],[],[],[],0.7413,1,260.9384,261.4384,,,,,,415,FEM,AGR,150,cabina,la,a,0.7413,,261.4384,261.4386,0.131380208,-0.262427662,0,0,0,,0,72,72,414,1,,,,
,,,,,,dbf5ef88df93039e1e63c92b,66a626ef09d4e21e1a8894ec,6734b0f433f28e2146fb81e6,2024-11-13_08h06.39.232,Tarea de género gramatical,2024.2.2,MacIntel,59.88023952,,,,,,,,,,,,,,,,,,,,,,,,261.44,262.5215,l,1,[],[],[],[],[],[],[],0.4006,1,262.5216,263.0218,,,,,,102,MAS,DIS,150,coro,la,l,0.4006,,263.0219,263.0221,0.131380208,-0.262427662,0,0,0,,0,73,73,101,1,,,,
,,,,,,dbf5ef88df93039e1e63c92b,66a626ef09d4e21e1a8894ec,6734b0f433f28e2146fb81e6,2024-11-13_08h06.39.232,Tarea de género gramatical,2024.2.2,MacIntel,59.88023952,,,,,,,,,,,,,,,,,,,,,,,,263.0239,264.3882,a,1,[],[],[],[],[],[],[],0.6944,1,264.3883,264.8883,,,,,,350,FEM,CON,150,imagen,,a,0.6944,,264.8903,264.8913,0.131380208,-0.262427662,0,0,0,,0,74,74,349,1,,,,
,,,,,,dbf5ef88df93039e1e63c92b,66a626ef09d4e21e1a8894ec,6734b0f433f28e2146fb81e6,2024-11-13_08h06.39.232,Tarea de género gramatical,2024.2.2,MacIntel,59.88023952,,,,,,,,,,,,,,,,,,,,,,,,264.8923,266.0217,l,1,[],[],[],[],[],[],[],0.4533,1,266.0219,266.522,,,,,,443,MAS,CON,150,templo,,l,0.4533,,266.522,266.5223,0.131380208,-0.262427662,0,0,0,,0,75,75,442,1,,,,
,,,,,,dbf5ef88df93039e1e63c92b,66a626ef09d4e21e1a8894ec,6734b0f433f28e2146fb81e6,2024-11-13_08h06.39.232,Tarea de género gramatical,2024.2.2,MacIntel,59.88023952,,,,,,,,,,,,,,,,,,,,,,,,266.5239,267.6207,l,1,[],[],[],[],[],[],[],0.4275,1,267.6208,268.1219,,,,,,89,MAS,CON,150,maíz,,l,0.4275,,268.122,268.1223,0.131380208,-0.262427662,0,0,0,,0,76,76,88,1,,,,
,,,,,,dbf5ef88df93039e1e63c92b,66a626ef09d4e21e1a8894ec,6734b0f433f28e2146fb81e6,2024-11-13_08h06.39.232,Tarea de género gramatical,2024.2.2,MacIntel,59.88023952,,,,,,,,,,,,,,,,,,,,,,,,268.1242,269.1717,l,1,[],[],[],[],[],[],[],0.3773,1,269.1718,269.6719,,,,,,306,MAS,DIS,150,dinero,la,l,0.3773,,269.6719,269.6721,0.131380208,-0.262427662,0,0,0,,0,77,77,305,1,,,,
,,,,,,dbf5ef88df93039e1e63c92b,66a626ef09d4e21e1a8894ec,6734b0f433f28e2146fb81e6,2024-11-13_08h06.39.232,Tarea de género gramatical,2024.2.2,MacIntel,59.88023952,,,,,,,,,,,,,,,,,,,,,,,,269.674,270.7218,l,1,[],[],[],[],[],[],[],0.3672,1,270.7219,271.2219,,,,,,222,MAS,DIS,150,valor,la,l,0.3672,,271.2238,271.2247,0.131380208,-0.262427662,0,0,0,,0,78,78,221,1,,,,
,,,,,,dbf5ef88df93039e1e63c92b,66a626ef09d4e21e1a8894ec,6734b0f433f28e2146fb81e6,2024-11-13_08h06.39.232,Tarea de género gramatical,2024.2.2,MacIntel,59.88023952,,,,,,,,,,,,,,,,,,,,,,,,271.2256,272.2552,l,1,[],[],[],[],[],[],[],0.3538,1,272.2554,272.7549,,,,,,275,MAS,CON,150,disco,,l,0.3538,,272.7549,272.755,0.131380208,-0.262427662,0,0,0,,0,79,79,274,1,,,,
,,,,,,dbf5ef88df93039e1e63c92b,66a626ef09d4e21e1a8894ec,6734b0f433f28e2146fb81e6,2024-11-13_08h06.39.232,Tarea de género gramatical,2024.2.2,MacIntel,59.88023952,,,,,,,,,,,,,,,,,,,,,,,,272.7559,273.7885,a,1,[],[],[],[],[],[],[],0.3595,1,273.7886,274.2887,,,,,,98,FEM,CON,150,fuga,,a,0.3595,,274.2888,274.2889,0.131380208,-0.262427662,0,0,0,,0,80,80,97,1,,,,
,,,,,,dbf5ef88df93039e1e63c92b,66a626ef09d4e21e1a8894ec,6734b0f433f28e2146fb81e6,2024-11-13_08h06.39.232,Tarea de género gramatical,2024.2.2,MacIntel,59.88023952,,,,,,,,,,,,,,,,,,,,,,,,274.2905,275.2721,a,0,[],[],[],[],[],[],[],0.312,0,275.2736,275.772,,,,,,304,MAS,AGR,150,tiempo,el,l,0.312,,275.7721,275.7721,0.131380208,-0.262427662,0,0,0,,0,81,81,303,1,,,,
,,,,,,dbf5ef88df93039e1e63c92b,66a626ef09d4e21e1a8894ec,6734b0f433f28e2146fb81e6,2024-11-13_08h06.39.232,Tarea de género gramatical,2024.2.2,MacIntel,59.88023952,,,,,,,,,,,,,,,,,,,,,,,,275.7735,276.8393,l,1,[],[],[],[],[],[],[],0.3959,1,276.8403,277.3388,,,,,,180,MAS,DIS,150,fuego,la,l,0.3959,,277.3389,277.339,0.131380208,-0.262427662,0,0,0,,0,82,82,179,1,,,,
,,,,,,dbf5ef88df93039e1e63c92b,66a626ef09d4e21e1a8894ec,6734b0f433f28e2146fb81e6,2024-11-13_08h06.39.232,Tarea de género gramatical,2024.2.2,MacIntel,59.88023952,,,,,,,,,,,,,,,,,,,,,,,,277.3408,278.3722,l,1,[],[],[],[],[],[],[],0.351,1,278.3724,278.8722,,,,,,430,MAS,AGR,150,título,el,l,0.351,,278.874,278.8752,0.131380208,-0.262427662,0,0,0,,0,83,83,429,1,,,,
,,,,,,dbf5ef88df93039e1e63c92b,66a626ef09d4e21e1a8894ec,6734b0f433f28e2146fb81e6,2024-11-13_08h06.39.232,Tarea de género gramatical,2024.2.2,MacIntel,59.88023952,,,,,,,,,,,,,,,,,,,,,,,,278.8761,279.8884,l,1,[],[],[],[],[],[],[],0.3432,1,279.8885,280.3889,,,,,,12,MAS,DIS,150,plan,la,l,0.3432,,280.3891,280.3892,0.131380208,-0.262427662,0,0,0,,0,84,84,11,1,,,,
,,,,,,dbf5ef88df93039e1e63c92b,66a626ef09d4e21e1a8894ec,6734b0f433f28e2146fb81e6,2024-11-13_08h06.39.232,Tarea de género gramatical,2024.2.2,MacIntel,59.88023952,,,,,,,,,,,,,,,,,,,,,,,,280.3911,281.4555,a,1,[],[],[],[],[],[],[],0.3838,1,281.4557,281.9555,,,,,,9,FEM,DIS,150,mamá,el,a,0.3838,,281.9557,281.9558,0.131380208,-0.262427662,0,0,0,,0,85,85,8,1,,,,
,,,,,,dbf5ef88df93039e1e63c92b,66a626ef09d4e21e1a8894ec,6734b0f433f28e2146fb81e6,2024-11-13_08h06.39.232,Tarea de género gramatical,2024.2.2,MacIntel,59.88023952,,,,,,,,,,,,,,,,,,,,,,,,281.9576,283.2224,l,1,[],[],[],[],[],[],[],0.5958,1,283.2226,283.7223,,,,,,78,MAS,DIS,150,oído,la,l,0.5958,,283.7224,283.7226,0.131380208,-0.262427662,0,0,0,,0,86,86,77,1,,,,
,,,,,,dbf5ef88df93039e1e63c92b,66a626ef09d4e21e1a8894ec,6734b0f433f28e2146fb81e6,2024-11-13_08h06.39.232,Tarea de género gramatical,2024.2.2,MacIntel,59.88023952,,,,,,,,,,,,,,,,,,,,,,,,283.7244,284.7058,l,1,[],[],[],[],[],[],[],0.3036,1,284.706,285.2057,,,,,,372,MAS,DIS,150,delito,la,l,0.3036,,285.2077,285.2088,0.131380208,-0.262427662,0,0,0,,0,87,87,371,1,,,,
,,,,,,dbf5ef88df93039e1e63c92b,66a626ef09d4e21e1a8894ec,6734b0f433f28e2146fb81e6,2024-11-13_08h06.39.232,Tarea de género gramatical,2024.2.2,MacIntel,59.88023952,,,,,,,,,,,,,,,,,,,,,,,,285.2106,286.1889,l,1,[],[],[],[],[],[],[],0.3121,1,286.1891,286.6891,,,,,,370,MAS,AGR,150,seguro,el,l,0.3121,,286.6892,286.6894,0.131380208,-0.262427662,0,0,0,,0,88,88,369,1,,,,
,,,,,,dbf5ef88df93039e1e63c92b,66a626ef09d4e21e1a8894ec,6734b0f433f28e2146fb81e6,2024-11-13_08h06.39.232,Tarea de género gramatical,2024.2.2,MacIntel,59.88023952,,,,,,,,,,,,,,,,,,,,,,,,286.691,287.7224,l,0,[],[],[],[],[],[],[],0.3504,0,287.7238,288.2224,,,,,,247,FEM,AGR,150,frase,la,a,0.3504,,288.2225,288.2227,0.131380208,-0.262427662,0,0,0,,0,89,89,246,1,,,,
,,,,,,dbf5ef88df93039e1e63c92b,66a626ef09d4e21e1a8894ec,6734b0f433f28e2146fb81e6,2024-11-13_08h06.39.232,Tarea de género gramatical,2024.2.2,MacIntel,59.88023952,,,,,,,,,,,,,,,,,,,,,,,,288.2243,289.406,a,1,[],[],[],[],[],[],[],0.5131,1,289.4072,289.9058,,,,,,319,FEM,AGR,150,sangre,la,a,0.5131,,289.9059,289.906,0.131380208,-0.262427662,0,0,0,,0,90,90,318,1,,,,
,,,,,,dbf5ef88df93039e1e63c92b,66a626ef09d4e21e1a8894ec,6734b0f433f28e2146fb81e6,2024-11-13_08h06.39.232,Tarea de género gramatical,2024.2.2,MacIntel,59.88023952,,,,,,,,,,,,,,,,,,,,,,,,289.9079,291.1391,a,1,[],[],[],[],[],[],[],0.5533,1,291.1393,291.6393,,,,,,67,FEM,AGR,150,miel,la,a,0.5533,,291.6394,291.6395,0.131380208,-0.262427662,0,0,0,,0,91,91,66,1,,,,
,,,,,,dbf5ef88df93039e1e63c92b,66a626ef09d4e21e1a8894ec,6734b0f433f28e2146fb81e6,2024-11-13_08h06.39.232,Tarea de género gramatical,2024.2.2,MacIntel,59.88023952,,,,,,,,,,,,,,,,,,,,,,,,291.6411,292.8887,l,1,[],[],[],[],[],[],[],0.5666,1,292.8889,293.3893,,,,,,335,MAS,CON,150,montón,,l,0.5666,,293.3911,293.3922,0.131380208,-0.262427662,0,0,0,,0,92,92,334,1,,,,
,,,,,,dbf5ef88df93039e1e63c92b,66a626ef09d4e21e1a8894ec,6734b0f433f28e2146fb81e6,2024-11-13_08h06.39.232,Tarea de género gramatical,2024.2.2,MacIntel,59.88023952,,,,,,,,,,,,,,,,,,,,,,,,293.3932,294.4887,l,1,[],[],[],[],[],[],[],0.4213,1,294.4889,294.9893,,,,,,35,MAS,CON,150,taxi,,l,0.4213,,294.9894,294.9894,0.131380208,-0.262427662,0,0,0,,0,93,93,34,1,,,,
,,,,,,dbf5ef88df93039e1e63c92b,66a626ef09d4e21e1a8894ec,6734b0f433f28e2146fb81e6,2024-11-13_08h06.39.232,Tarea de género gramatical,2024.2.2,MacIntel,59.88023952,,,,,,,,,,,,,,,,,,,,,,,,294.9909,296.1232,a,1,[],[],[],[],[],[],[],0.4624,1,296.1234,296.6227,,,,,,151,FEM,AGR,150,noche,la,a,0.4624,,296.6229,296.623,0.131380208,-0.262427662,0,0,0,,0,94,94,150,1,,,,
,,,,,,dbf5ef88df93039e1e63c92b,66a626ef09d4e21e1a8894ec,6734b0f433f28e2146fb81e6,2024-11-13_08h06.39.232,Tarea de género gramatical,2024.2.2,MacIntel,59.88023952,,,,,,,,,,,,,,,,,,,,,,,,296.6247,297.7386,a,1,[],[],[],[],[],[],[],0.4418,1,297.7387,298.2395,,,,,,271,FEM,AGR,150,viuda,la,a,0.4418,,298.2396,298.2398,0.131380208,-0.262427662,0,0,0,,0,95,95,270,1,,,,
,,,,,,dbf5ef88df93039e1e63c92b,66a626ef09d4e21e1a8894ec,6734b0f433f28e2146fb81e6,2024-11-13_08h06.39.232,Tarea de género gramatical,2024.2.2,MacIntel,59.88023952,,,,,,,,,,,,,,,,,,,,,,,,298.2415,299.289,a,0,[],[],[],[],[],[],[],0.368,0,299.2903,299.7895,,,,,,324,MAS,DIS,150,cuarto,la,l,0.368,,299.7912,299.7922,0.131380208,-0.262427662,0,0,0,,0,96,96,323,1,,,,
,,,,,,dbf5ef88df93039e1e63c92b,66a626ef09d4e21e1a8894ec,6734b0f433f28e2146fb81e6,2024-11-13_08h06.39.232,Tarea de género gramatical,2024.2.2,MacIntel,59.88023952,,,,,,,,,,,,,,,,,,,,,,,,299.7932,301.0062,l,1,[],[],[],[],[],[],[],0.5381,1,301.0077,301.5062,,,,,,22,MAS,AGR,150,pelo,el,l,0.5381,,301.5063,301.5065,0.131380208,-0.262427662,0,0,0,,0,97,97,21,1,,,,
,,,,,,dbf5ef88df93039e1e63c92b,66a626ef09d4e21e1a8894ec,6734b0f433f28e2146fb81e6,2024-11-13_08h06.39.232,Tarea de género gramatical,2024.2.2,MacIntel,59.88023952,,,,,,,,,,,,,,,,,,,,,,,,301.5083,302.7727,a,1,[],[],[],[],[],[],[],0.5825,1,302.7729,303.2731,,,,,,183,FEM,DIS,150,llave,el,a,0.5825,,303.2731,303.2733,0.131380208,-0.262427662,0,0,0,,0,98,98,182,1,,,,
,,,,,,dbf5ef88df93039e1e63c92b,66a626ef09d4e21e1a8894ec,6734b0f433f28e2146fb81e6,2024-11-13_08h06.39.232,Tarea de género gramatical,2024.2.2,MacIntel,59.88023952,,,,,,,,,,,,,,,,,,,,,,,,303.2749,304.4563,a,1,[],[],[],[],[],[],[],0.5108,1,304.4564,304.956,,,,,,417,FEM,DIS,150,cabaña,el,a,0.5108,,304.956,304.9562,0.131380208,-0.262427662,0,0,0,,0,99,99,416,1,,,,
,,,,,,dbf5ef88df93039e1e63c92b,66a626ef09d4e21e1a8894ec,6734b0f433f28e2146fb81e6,2024-11-13_08h06.39.232,Tarea de género gramatical,2024.2.2,MacIntel,59.88023952,,,,,,,,,,,,,,,,,,,,,,,,304.9578,306.3562,a,1,[],[],[],[],[],[],[],0.7279,1,306.3563,306.8563,,,,,,57,FEM,DIS,150,moda,el,a,0.7279,,306.8564,306.8565,0.131380208,-0.262427662,0,0,0,,0,100,100,56,1,,,,
,,,,,,dbf5ef88df93039e1e63c92b,66a626ef09d4e21e1a8894ec,6734b0f433f28e2146fb81e6,2024-11-13_08h06.39.232,Tarea de género gramatical,2024.2.2,MacIntel,59.88023952,,,,,,,,,,,,,,,,,,,,,,,,306.8585,307.9062,l,1,[],[],[],[],[],[],[],0.3767,1,307.9064,308.4064,,,,,,82,MAS,AGR,150,tubo,el,l,0.3767,,308.4082,308.4092,0.131380208,-0.262427662,0,0,0,,0,101,101,81,1,,,,
,,,,,,dbf5ef88df93039e1e63c92b,66a626ef09d4e21e1a8894ec,6734b0f433f28e2146fb81e6,2024-11-13_08h06.39.232,Tarea de género gramatical,2024.2.2,MacIntel,59.88023952,,,,,,,,,,,,,,,,,,,,,,,,308.4102,309.4725,l,1,[],[],[],[],[],[],[],0.3843,1,309.4727,309.9731,,,,,,258,MAS,DIS,150,polvo,la,l,0.3843,,309.9732,309.9734,0.131380208,-0.262427662,0,0,0,,0,102,102,257,1,,,,
,,,,,,dbf5ef88df93039e1e63c92b,66a626ef09d4e21e1a8894ec,6734b0f433f28e2146fb81e6,2024-11-13_08h06.39.232,Tarea de género gramatical,2024.2.2,MacIntel,59.88023952,,,,,,,,,,,,,,,,,,,,,,,,309.9749,311.0564,a,1,[],[],[],[],[],[],[],0.4004,1,311.0566,311.5555,,,,,,428,FEM,CON,150,jugada,,a,0.4004,,311.5556,311.5558,0.131380208,-0.262427662,0,0,0,,0,103,103,427,1,,,,
,,,,,,dbf5ef88df93039e1e63c92b,66a626ef09d4e21e1a8894ec,6734b0f433f28e2146fb81e6,2024-11-13_08h06.39.232,Tarea de género gramatical,2024.2.2,MacIntel,59.88023952,,,,,,,,,,,,,,,,,,,,,,,,311.5575,312.7894,a,1,[],[],[],[],[],[],[],0.5608,1,312.7896,313.2893,,,,,,423,FEM,DIS,150,poesía,el,a,0.5608,,313.2894,313.2895,0.131380208,-0.262427662,0,0,0,,0,104,104,422,1,,,,
,,,,,,dbf5ef88df93039e1e63c92b,66a626ef09d4e21e1a8894ec,6734b0f433f28e2146fb81e6,2024-11-13_08h06.39.232,Tarea de género gramatical,2024.2.2,MacIntel,59.88023952,,,,,,,,,,,,,,,,,,,,,,,,313.2913,314.3733,l,0,[],[],[],[],[],[],[],0.4005,0,314.3746,314.8733,,,,,,105,FEM,DIS,150,jefa,el,a,0.4005,,314.8752,314.8763,0.131380208,-0.262427662,0,0,0,,0,105,105,104,1,,,,
,,,,,,dbf5ef88df93039e1e63c92b,66a626ef09d4e21e1a8894ec,6734b0f433f28e2146fb81e6,2024-11-13_08h06.39.232,Tarea de género gramatical,2024.2.2,MacIntel,59.88023952,,,,,,,,,,,,,,,,,,,,,,,,314.8772,316.0895,a,1,[],[],[],[],[],[],[],0.5431,1,316.0902,316.59,,,,,,403,FEM,AGR,150,paliza,la,a,0.5431,,316.59,316.5902,0.131380208,-0.262427662,0,0,0,,0,106,106,402,1,,,,
,,,,,,dbf5ef88df93039e1e63c92b,66a626ef09d4e21e1a8894ec,6734b0f433f28e2146fb81e6,2024-11-13_08h06.39.232,Tarea de género gramatical,2024.2.2,MacIntel,59.88023952,,,,,,,,,,,,,,,,,,,,,,,,316.5917,317.6899,l,1,[],[],[],[],[],[],[],0.427,1,317.6901,318.19,,,,,,190,MAS,AGR,150,campo,el,l,0.427,,318.1901,318.1903,0.131380208,-0.262427662,0,0,0,,0,107,107,189,1,,,,
,,,,,,dbf5ef88df93039e1e63c92b,66a626ef09d4e21e1a8894ec,6734b0f433f28e2146fb81e6,2024-11-13_08h06.39.232,Tarea de género gramatical,2024.2.2,MacIntel,59.88023952,,,,,,,,,,,,,,,,,,,,,,,,318.192,319.4735,l,1,[],[],[],[],[],[],[],0.604,1,319.4737,319.9726,,,,,,184,MAS,AGR,150,cielo,el,l,0.604,,319.9727,319.9729,0.131380208,-0.262427662,0,0,0,,0,108,108,183,1,,,,
,,,,,,dbf5ef88df93039e1e63c92b,66a626ef09d4e21e1a8894ec,6734b0f433f28e2146fb81e6,2024-11-13_08h06.39.232,Tarea de género gramatical,2024.2.2,MacIntel,59.88023952,,,,,,,,,,,,,,,,,,,,,,,,319.9748,321.1567,l,1,[],[],[],[],[],[],[],0.5123,1,321.1568,321.6568,,,,,,108,MAS,DIS,150,hilo,la,l,0.5123,,321.6569,321.6571,0.131380208,-0.262427662,0,0,0,,0,109,109,107,1,,,,
,,,,,,dbf5ef88df93039e1e63c92b,66a626ef09d4e21e1a8894ec,6734b0f433f28e2146fb81e6,2024-11-13_08h06.39.232,Tarea de género gramatical,2024.2.2,MacIntel,59.88023952,,,,,,,,,,,,,,,,,,,,,,,,321.6588,322.79,a,1,[],[],[],[],[],[],[],0.46,1,322.7901,323.2902,,,,,,277,FEM,AGR,150,plaza,la,a,0.46,,323.2921,323.2933,0.131380208,-0.262427662,0,0,0,,0,110,110,276,1,,,,
,,,,,,dbf5ef88df93039e1e63c92b,66a626ef09d4e21e1a8894ec,6734b0f433f28e2146fb81e6,2024-11-13_08h06.39.232,Tarea de género gramatical,2024.2.2,MacIntel,59.88023952,,,,,,,,,,,,,,,,,,,,,,,,323.2944,324.6402,a,1,[],[],[],[],[],[],[],0.6673,1,324.6403,325.1402,,,,,,217,FEM,AGR,150,tarea,la,a,0.6673,,325.1403,325.1405,0.131380208,-0.262427662,0,0,0,,0,111,111,216,1,,,,
,,,,,,dbf5ef88df93039e1e63c92b,66a626ef09d4e21e1a8894ec,6734b0f433f28e2146fb81e6,2024-11-13_08h06.39.232,Tarea de género gramatical,2024.2.2,MacIntel,59.88023952,,,,,,,,,,,,,,,,,,,,,,,,325.1422,326.4729,l,1,[],[],[],[],[],[],[],0.6537,1,326.473,326.9736,,,,,,41,MAS,CON,150,bote,,l,0.6537,,326.9737,326.9739,0.131380208,-0.262427662,0,0,0,,0,112,112,40,1,,,,
,,,,,,dbf5ef88df93039e1e63c92b,66a626ef09d4e21e1a8894ec,6734b0f433f28e2146fb81e6,2024-11-13_08h06.39.232,Tarea de género gramatical,2024.2.2,MacIntel,59.88023952,,,,,,,,,,,,,,,,,,,,,,,,326.9758,328.0736,a,1,[],[],[],[],[],[],[],0.4245,1,328.0737,328.5737,,,,,,315,FEM,DIS,150,manera,el,a,0.4245,,328.5737,328.5739,0.131380208,-0.262427662,0,0,0,,0,113,113,314,1,,,,
,,,,,,dbf5ef88df93039e1e63c92b,66a626ef09d4e21e1a8894ec,6734b0f433f28e2146fb81e6,2024-11-13_08h06.39.232,Tarea de género gramatical,2024.2.2,MacIntel,59.88023952,,,,,,,,,,,,,,,,,,,,,,,,328.5756,330.0403,l,1,[],[],[],[],[],[],[],0.7857,1,330.0404,330.5397,,,,,,226,MAS,AGR,150,color,el,l,0.7857,,330.5416,330.5426,0.131380208,-0.262427662,0,0,0,,0,114,114,225,1,,,,
,,,,,,dbf5ef88df93039e1e63c92b,66a626ef09d4e21e1a8894ec,6734b0f433f28e2146fb81e6,2024-11-13_08h06.39.232,Tarea de género gramatical,2024.2.2,MacIntel,59.88023952,,,,,,,,,,,,,,,,,,,,,,,,330.5437,331.7071,a,1,[],[],[],[],[],[],[],0.4846,1,331.7073,332.2071,,,,,,411,FEM,DIS,150,actriz,el,a,0.4846,,332.2073,332.2074,0.131380208,-0.262427662,0,0,0,,0,115,115,410,1,,,,
,,,,,,dbf5ef88df93039e1e63c92b,66a626ef09d4e21e1a8894ec,6734b0f433f28e2146fb81e6,2024-11-13_08h06.39.232,Tarea de género gramatical,2024.2.2,MacIntel,59.88023952,,,,,,,,,,,,,,,,,,,,,,,,332.209,333.5396,a,1,[],[],[],[],[],[],[],0.6619,1,333.5398,334.0405,,,,,,399,FEM,DIS,150,charla,el,a,0.6619,,334.0406,334.0408,0.131380208,-0.262427662,0,0,0,,0,116,116,398,1,,,,
,,,,,,dbf5ef88df93039e1e63c92b,66a626ef09d4e21e1a8894ec,6734b0f433f28e2146fb81e6,2024-11-13_08h06.39.232,Tarea de género gramatical,2024.2.2,MacIntel,59.88023952,,,,,,,,,,,,,,,,,,,,,,,,334.0425,335.174,a,1,[],[],[],[],[],[],[],0.45,1,335.1741,335.6739,,,,,,157,FEM,AGR,150,madre,la,a,0.45,,335.674,335.6742,0.131380208,-0.262427662,0,0,0,,0,117,117,156,1,,,,
,,,,,,dbf5ef88df93039e1e63c92b,66a626ef09d4e21e1a8894ec,6734b0f433f28e2146fb81e6,2024-11-13_08h06.39.232,Tarea de género gramatical,2024.2.2,MacIntel,59.88023952,,,,,,,,,,,,,,,,,,,,,,,,335.6757,336.8739,l,1,[],[],[],[],[],[],[],0.5203,1,336.874,337.374,,,,,,156,MAS,DIS,150,amigo,la,l,0.5203,,337.3741,337.3743,0.131380208,-0.262427662,0,0,0,,0,118,118,155,1,,,,
,,,,,,dbf5ef88df93039e1e63c92b,66a626ef09d4e21e1a8894ec,6734b0f433f28e2146fb81e6,2024-11-13_08h06.39.232,Tarea de género gramatical,2024.2.2,MacIntel,59.88023952,,,,,,,,,,,,,,,,,,,,,,,,337.3761,338.5072,a,1,[],[],[],[],[],[],[],0.462,1,338.5072,339.0073,,,,,,195,FEM,DIS,150,pared,el,a,0.462,,339.0094,339.0107,0.131380208,-0.262427662,0,0,0,,0,119,119,194,1,,,,
,,,,,,dbf5ef88df93039e1e63c92b,66a626ef09d4e21e1a8894ec,6734b0f433f28e2146fb81e6,2024-11-13_08h06.39.232,Tarea de género gramatical,2024.2.2,MacIntel,59.88023952,,,,,,,,,,,,,,,,,,,,,,,,339.0117,340.2239,a,1,[],[],[],[],[],[],[],0.5334,1,340.224,340.7241,,,,,,164,FEM,CON,150,novia,,a,0.5334,,340.7242,340.7243,0.131380208,-0.262427662,0,0,0,,0,120,120,163,1,,,,
,,,,,,dbf5ef88df93039e1e63c92b,66a626ef09d4e21e1a8894ec,6734b0f433f28e2146fb81e6,2024-11-13_08h06.39.232,Tarea de género gramatical,2024.2.2,MacIntel,59.88023952,,,,,,,,,,,,,,,,,,,,,,,,340.7258,341.8736,l,0,[],[],[],[],[],[],[],0.4753,0,341.8749,342.3737,,,,,,211,FEM,AGR,150,salud,la,a,0.4753,,342.3738,342.3739,0.131380208,-0.262427662,0,0,0,,0,121,121,210,1,,,,
,,,,,,dbf5ef88df93039e1e63c92b,66a626ef09d4e21e1a8894ec,6734b0f433f28e2146fb81e6,2024-11-13_08h06.39.232,Tarea de género gramatical,2024.2.2,MacIntel,59.88023952,,,,,,,,,,,,,,,,,,,,,,,,342.3755,343.5741,l,1,[],[],[],[],[],[],[],0.5194,1,343.5754,344.0738,,,,,,328,MAS,AGR,150,asunto,el,l,0.5194,,344.0738,344.0739,0.131380208,-0.262427662,0,0,0,,0,122,122,327,1,,,,
,,,,,,dbf5ef88df93039e1e63c92b,66a626ef09d4e21e1a8894ec,6734b0f433f28e2146fb81e6,2024-11-13_08h06.39.232,Tarea de género gramatical,2024.2.2,MacIntel,59.88023952,,,,,,,,,,,,,,,,,,,,,,,,344.0748,345.2074,l,1,[],[],[],[],[],[],[],0.4616,1,345.2076,345.7071,,,,,,334,MAS,AGR,150,ataque,el,l,0.4616,,345.7095,345.711,0.131380208,-0.262427662,0,0,0,,0,123,123,333,1,,,,
,,,,,,dbf5ef88df93039e1e63c92b,66a626ef09d4e21e1a8894ec,6734b0f433f28e2146fb81e6,2024-11-13_08h06.39.232,Tarea de género gramatical,2024.2.2,MacIntel,59.88023952,,,,,,,,,,,,,,,,,,,,,,,,345.7117,346.824,a,1,[],[],[],[],[],[],[],0.4338,1,346.8243,347.3242,,,,,,242,FEM,CON,150,pizza,,a,0.4338,,347.3244,347.3246,0.131380208,-0.262427662,0,0,0,,0,124,124,241,1,,,,
,,,,,,dbf5ef88df93039e1e63c92b,66a626ef09d4e21e1a8894ec,6734b0f433f28e2146fb81e6,2024-11-13_08h06.39.232,Tarea de género gramatical,2024.2.2,MacIntel,59.88023952,,,,,,,,,,,,,,,,,,,,,,,,347.3262,348.441,a,0,[],[],[],[],[],[],[],0.4426,0,348.4424,348.941,,,,,,281,MAS,CON,150,actor,,l,0.4426,,348.9411,348.9413,0.131380208,-0.262427662,0,0,0,,0,125,125,280,1,,,,
,,,,,,dbf5ef88df93039e1e63c92b,66a626ef09d4e21e1a8894ec,6734b0f433f28e2146fb81e6,2024-11-13_08h06.39.232,Tarea de género gramatical,2024.2.2,MacIntel,59.88023952,,,,,,,,,,,,,,,,,,,,,,,,348.9429,350.4909,l,1,[],[],[],[],[],[],[],0.8775,1,350.492,350.9905,,,,,,383,MAS,CON,150,parque,,l,0.8775,,350.9905,350.9907,0.131380208,-0.262427662,0,0,0,,0,126,126,382,1,,,,
,,,,,,dbf5ef88df93039e1e63c92b,66a626ef09d4e21e1a8894ec,6734b0f433f28e2146fb81e6,2024-11-13_08h06.39.232,Tarea de género gramatical,2024.2.2,MacIntel,59.88023952,,,,,,,,,,,,,,,,,,,,,,,,350.9925,352.0743,a,1,[],[],[],[],[],[],[],0.4089,1,352.0744,352.5746,,,,,,345,FEM,DIS,150,pierna,el,a,0.4089,,352.5746,352.5748,0.131380208,-0.262427662,0,0,0,,0,127,127,344,1,,,,
,,,,,,dbf5ef88df93039e1e63c92b,66a626ef09d4e21e1a8894ec,6734b0f433f28e2146fb81e6,2024-11-13_08h06.39.232,Tarea de género gramatical,2024.2.2,MacIntel,59.88023952,,,,,,,,,,,,,,,,,,,,,,,,352.5765,353.7743,l,1,[],[],[],[],[],[],[],0.5185,1,353.7744,354.2745,,,,,,204,MAS,DIS,150,papel,la,l,0.5185,,354.2765,354.2779,0.131380208,-0.262427662,0,0,0,,0,128,128,203,1,,,,
,,,,,,dbf5ef88df93039e1e63c92b,66a626ef09d4e21e1a8894ec,6734b0f433f28e2146fb81e6,2024-11-13_08h06.39.232,Tarea de género gramatical,2024.2.2,MacIntel,59.88023952,,,,,,,,,,,,,,,,,,,,,,,,354.2791,355.6074,a,1,[],[],[],[],[],[],[],0.6637,1,355.6075,356.1078,,,,,,307,FEM,AGR,150,suerte,la,a,0.6637,,356.108,356.1082,0.131380208,-0.262427662,0,0,0,,0,129,129,306,1,,,,
,,,,,,dbf5ef88df93039e1e63c92b,66a626ef09d4e21e1a8894ec,6734b0f433f28e2146fb81e6,2024-11-13_08h06.39.232,Tarea de género gramatical,2024.2.2,MacIntel,59.88023952,,,,,,,,,,,,,,,,,,,,,,,,356.1101,357.3413,l,0,[],[],[],[],[],[],[],0.5523,0,357.3431,357.8412,,,,,,50,FEM,CON,150,dama,,a,0.5523,,357.8414,357.8416,0.131380208,-0.262427662,0,0,0,,0,130,130,49,1,,,,
,,,,,,dbf5ef88df93039e1e63c92b,66a626ef09d4e21e1a8894ec,6734b0f433f28e2146fb81e6,2024-11-13_08h06.39.232,Tarea de género gramatical,2024.2.2,MacIntel,59.88023952,,,,,,,,,,,,,,,,,,,,,,,,357.8434,359.0579,l,1,[],[],[],[],[],[],[],0.5398,1,359.0593,359.558,,,,,,436,MAS,AGR,150,objeto,el,l,0.5398,,359.5581,359.5582,0.131380208,-0.262427662,0,0,0,,0,131,131,435,1,,,,
,,,,,,dbf5ef88df93039e1e63c92b,66a626ef09d4e21e1a8894ec,6734b0f433f28e2146fb81e6,2024-11-13_08h06.39.232,Tarea de género gramatical,2024.2.2,MacIntel,59.88023952,,,,,,,,,,,,,,,,,,,,,,,,359.5601,360.8246,a,1,[],[],[],[],[],[],[],0.594,1,360.8247,361.3245,,,,,,135,FEM,DIS,150,raíz,el,a,0.594,,361.3264,361.3276,0.131380208,-0.262427662,0,0,0,,0,132,132,134,1,,,,
,,,,,,dbf5ef88df93039e1e63c92b,66a626ef09d4e21e1a8894ec,6734b0f433f28e2146fb81e6,2024-11-13_08h06.39.232,Tarea de género gramatical,2024.2.2,MacIntel,59.88023952,,,,,,,,,,,,,,,,,,,,,,,,361.3285,362.5749,l,0,[],[],[],[],[],[],[],0.579,0,362.5763,363.0748,,,,,,224,FEM,CON,150,arena,,a,0.579,,363.0749,363.0751,0.131380208,-0.262427662,0,0,0,,0,133,133,223,1,,,,
,,,,,,dbf5ef88df93039e1e63c92b,66a626ef09d4e21e1a8894ec,6734b0f433f28e2146fb81e6,2024-11-13_08h06.39.232,Tarea de género gramatical,2024.2.2,MacIntel,59.88023952,,,,,,,,,,,,,,,,,,,,,,,,363.0768,364.2582,a,0,[],[],[],[],[],[],[],0.4984,0,364.2584,364.7577,,,,,,197,MAS,CON,150,avión,,l,0.4984,,364.7578,364.7579,0.131380208,-0.262427662,0,0,0,,0,134,134,196,1,,,,
,,,,,,dbf5ef88df93039e1e63c92b,66a626ef09d4e21e1a8894ec,6734b0f433f28e2146fb81e6,2024-11-13_08h06.39.232,Tarea de género gramatical,2024.2.2,MacIntel,59.88023952,,,,,,,,,,,,,,,,,,,,,,,,364.7588,366.0914,a,1,[],[],[],[],[],[],[],0.6549,1,366.0925,366.5916,,,,,,283,FEM,AGR,150,pluma,la,a,0.6549,,366.5916,366.5918,0.131380208,-0.262427662,0,0,0,,0,135,135,282,1,,,,
,,,,,,dbf5ef88df93039e1e63c92b,66a626ef09d4e21e1a8894ec,6734b0f433f28e2146fb81e6,2024-11-13_08h06.39.232,Tarea de género gramatical,2024.2.2,MacIntel,59.88023952,,,,,,,,,,,,,,,,,,,,,,,,366.5937,367.6916,l,1,[],[],[],[],[],[],[],0.4204,1,367.6918,368.1909,,,,,,396,MAS,DIS,150,tesoro,la,l,0.4204,,368.191,368.1911,0.131380208,-0.262427662,0,0,0,,0,136,136,395,1,,,,
,,,,,,dbf5ef88df93039e1e63c92b,66a626ef09d4e21e1a8894ec,6734b0f433f28e2146fb81e6,2024-11-13_08h06.39.232,Tarea de género gramatical,2024.2.2,MacIntel,59.88023952,,,,,,,,,,,,,,,,,,,,,,,,368.1915,369.6249,a,1,[],[],[],[],[],[],[],0.7684,1,369.625,370.1249,,,,,,181,FEM,AGR,150,tarde,la,a,0.7684,,370.127,370.1278,0.131380208,-0.262427662,0,0,0,,0,137,137,180,1,,,,
,,,,,,dbf5ef88df93039e1e63c92b,66a626ef09d4e21e1a8894ec,6734b0f433f28e2146fb81e6,2024-11-13_08h06.39.232,Tarea de género gramatical,2024.2.2,MacIntel,59.88023952,,,,,,,,,,,,,,,,,,,,,,,,370.1286,371.3084,a,0,[],[],[],[],[],[],[],0.5114,0,371.3097,371.8083,,,,,,312,MAS,DIS,150,equipo,la,l,0.5114,,371.8085,371.8086,0.131380208,-0.262427662,0,0,0,,0,138,138,311,1,,,,
,,,,,,dbf5ef88df93039e1e63c92b,66a626ef09d4e21e1a8894ec,6734b0f433f28e2146fb81e6,2024-11-13_08h06.39.232,Tarea de género gramatical,2024.2.2,MacIntel,59.88023952,,,,,,,,,,,,,,,,,,,,,,,,371.8105,372.9741,a,0,[],[],[],[],[],[],[],0.492,0,372.9743,373.4751,,,,,,71,MAS,CON,150,pozo,,l,0.492,,373.4752,373.4754,0.131380208,-0.262427662,0,0,0,,0,139,139,70,1,,,,
,,,,,,dbf5ef88df93039e1e63c92b,66a626ef09d4e21e1a8894ec,6734b0f433f28e2146fb81e6,2024-11-13_08h06.39.232,Tarea de género gramatical,2024.2.2,MacIntel,59.88023952,,,,,,,,,,,,,,,,,,,,,,,,373.4772,374.7085,l,1,[],[],[],[],[],[],[],0.556,1,374.7101,375.2084,,,,,,251,MAS,CON,150,dueño,,l,0.556,,375.2085,375.2087,0.131380208,-0.262427662,0,0,0,,0,140,140,250,1,,,,
,,,,,,dbf5ef88df93039e1e63c92b,66a626ef09d4e21e1a8894ec,6734b0f433f28e2146fb81e6,2024-11-13_08h06.39.232,Tarea de género gramatical,2024.2.2,MacIntel,59.88023952,,,,,,,,,,,,,,,,,,,,,,,,375.2104,376.475,a,1,[],[],[],[],[],[],[],0.5914,1,376.4751,376.9752,,,,,,31,FEM,AGR,150,edad,la,a,0.5914,,376.9771,376.9782,0.131380208,-0.262427662,0,0,0,,0,141,141,30,1,,,,
,,,,,,dbf5ef88df93039e1e63c92b,66a626ef09d4e21e1a8894ec,6734b0f433f28e2146fb81e6,2024-11-13_08h06.39.232,Tarea de género gramatical,2024.2.2,MacIntel,59.88023952,,,,,,,,,,,,,,,,,,,,,,,,376.9791,378.1089,l,1,[],[],[],[],[],[],[],0.4625,1,378.1091,378.6086,,,,,,58,MAS,AGR,150,mono,el,l,0.4625,,378.6087,378.6088,0.131380208,-0.262427662,0,0,0,,0,142,142,57,1,,,,
,,,,,,dbf5ef88df93039e1e63c92b,66a626ef09d4e21e1a8894ec,6734b0f433f28e2146fb81e6,2024-11-13_08h06.39.232,Tarea de género gramatical,2024.2.2,MacIntel,59.88023952,,,,,,,,,,,,,,,,,,,,,,,,378.6106,380.1252,a,0,[],[],[],[],[],[],[],0.8337,0,380.1265,380.6254,,,,,,342,MAS,DIS,150,abuelo,la,l,0.8337,,380.6255,380.6256,0.131380208,-0.262427662,0,0,0,,0,143,143,341,1,,,,
,,,,,,dbf5ef88df93039e1e63c92b,66a626ef09d4e21e1a8894ec,6734b0f433f28e2146fb81e6,2024-11-13_08h06.39.232,Tarea de género gramatical,2024.2.2,MacIntel,59.88023952,,,,,,,,,,,,,,,,,,,,,,,,380.6273,382.2586,l,1,[],[],[],[],[],[],[],0.9536,1,382.2599,382.7583,,,,,,389,MAS,CON,150,tamaño,,l,0.9536,,382.7584,382.7584,0.131380208,-0.262427662,0,0,0,,0,144,144,388,1,,,,
,,,,,,dbf5ef88df93039e1e63c92b,66a626ef09d4e21e1a8894ec,6734b0f433f28e2146fb81e6,2024-11-13_08h06.39.232,Tarea de género gramatical,2024.2.2,MacIntel,59.88023952,,,,,,,,,,,,,,,,,,,,,,,,382.7593,383.8756,a,1,[],[],[],[],[],[],[],0.4455,1,383.8757,384.3755,,,,,,62,FEM,CON,150,sopa,,a,0.4455,,384.3757,384.3758,0.131380208,-0.262427662,0,0,0,,0,145,145,61,1,,,,
,,,,,,dbf5ef88df93039e1e63c92b,66a626ef09d4e21e1a8894ec,6734b0f433f28e2146fb81e6,2024-11-13_08h06.39.232,Tarea de género gramatical,2024.2.2,MacIntel,59.88023952,,,,,,,,,,,,,,,,,,,,,,,,384.3777,385.642,a,1,[],[],[],[],[],[],[],0.5954,1,385.6421,386.142,,,,,,363,FEM,DIS,150,unidad,el,a,0.5954,,386.144,386.1452,0.131380208,-0.262427662,0,0,0,,0,146,146,362,1,,,,
,,,,,,dbf5ef88df93039e1e63c92b,66a626ef09d4e21e1a8894ec,6734b0f433f28e2146fb81e6,2024-11-13_08h06.39.232,Tarea de género gramatical,2024.2.2,MacIntel,59.88023952,,,,,,,,,,,,,,,,,,,,,,,,386.1463,387.2754,a,1,[],[],[],[],[],[],[],0.4616,1,387.2755,387.7753,,,,,,127,FEM,AGR,150,cuna,la,a,0.4616,,387.7754,387.7755,0.131380208,-0.262427662,0,0,0,,0,147,147,126,1,,,,
,,,,,,dbf5ef88df93039e1e63c92b,66a626ef09d4e21e1a8894ec,6734b0f433f28e2146fb81e6,2024-11-13_08h06.39.232,Tarea de género gramatical,2024.2.2,MacIntel,59.88023952,,,,,,,,,,,,,,,,,,,,,,,,387.7769,389.1753,l,1,[],[],[],[],[],[],[],0.716,1,389.1755,389.6755,,,,,,310,MAS,AGR,150,nombre,el,l,0.716,,389.6757,389.6759,0.131380208,-0.262427662,0,0,0,,0,148,148,309,1,,,,
,,,,,,dbf5ef88df93039e1e63c92b,66a626ef09d4e21e1a8894ec,6734b0f433f28e2146fb81e6,2024-11-13_08h06.39.232,Tarea de género gramatical,2024.2.2,MacIntel,59.88023952,,,,,,,,,,,,,,,,,,,,,,,,389.6777,390.8093,l,1,[],[],[],[],[],[],[],0.4624,1,390.8094,391.3085,,,,,,143,MAS,CON,150,faro,,l,0.4624,,391.3086,391.3087,0.131380208,-0.262427662,0,0,0,,0,149,149,142,1,,,,
,,,,,,dbf5ef88df93039e1e63c92b,66a626ef09d4e21e1a8894ec,6734b0f433f28e2146fb81e6,2024-11-13_08h06.39.232,Tarea de género gramatical,2024.2.2,MacIntel,59.88023952,,,,,,,,,,,,,,,,,,,,,,,,391.3104,392.5257,l,1,[],[],[],[],[],[],[],0.5344,1,392.5259,393.0258,,,,,,348,MAS,DIS,150,anillo,la,l,0.5344,,393.0276,405.0931,0.131380208,-0.262427662,0,0,0,space,0,150,150,347,1,12.0548,,,
,,,,,,dbf5ef88df93039e1e63c92b,66a626ef09d4e21e1a8894ec,6734b0f433f28e2146fb81e6,2024-11-13_08h06.39.232,Tarea de género gramatical,2024.2.2,MacIntel,59.88023952,,,,,,,,,,,,,,,,,,,,,,,,405.0946,406.8927,l,1,[],[],[],[],[],[],[],1.1277,1,406.8929,407.3926,,,,,,34,MAS,AGR,150,gato,el,l,1.1277,,407.3928,407.3929,0.131380208,-0.262427662,0,0,0,,0,151,151,33,1,,,,
,,,,,,dbf5ef88df93039e1e63c92b,66a626ef09d4e21e1a8894ec,6734b0f433f28e2146fb81e6,2024-11-13_08h06.39.232,Tarea de género gramatical,2024.2.2,MacIntel,59.88023952,,,,,,,,,,,,,,,,,,,,,,,,407.3947,408.4084,l,1,[],[],[],[],[],[],[],0.3338,1,408.4086,408.9085,,,,,,438,MAS,DIS,150,tanque,la,l,0.3338,,408.9085,408.9088,0.131380208,-0.262427662,0,0,0,,0,152,152,437,1,,,,
,,,,,,dbf5ef88df93039e1e63c92b,66a626ef09d4e21e1a8894ec,6734b0f433f28e2146fb81e6,2024-11-13_08h06.39.232,Tarea de género gramatical,2024.2.2,MacIntel,59.88023952,,,,,,,,,,,,,,,,,,,,,,,,408.9107,410.0261,a,1,[],[],[],[],[],[],[],0.4362,1,410.0262,410.5252,,,,,,206,FEM,CON,150,época,,a,0.4362,,410.5252,410.5254,0.131380208,-0.262427662,0,0,0,,0,153,153,205,1,,,,
,,,,,,dbf5ef88df93039e1e63c92b,66a626ef09d4e21e1a8894ec,6734b0f433f28e2146fb81e6,2024-11-13_08h06.39.232,Tarea de género gramatical,2024.2.2,MacIntel,59.88023952,,,,,,,,,,,,,,,,,,,,,,,,410.5272,411.643,l,1,[],[],[],[],[],[],[],0.4373,1,411.6432,412.142,,,,,,214,MAS,AGR,150,fondo,el,l,0.4373,,412.1421,412.1422,0.131380208,-0.262427662,0,0,0,,0,154,154,213,1,,,,
,,,,,,dbf5ef88df93039e1e63c92b,66a626ef09d4e21e1a8894ec,6734b0f433f28e2146fb81e6,2024-11-13_08h06.39.232,Tarea de género gramatical,2024.2.2,MacIntel,59.88023952,,,,,,,,,,,,,,,,,,,,,,,,412.144,413.2586,a,1,[],[],[],[],[],[],[],0.4329,1,413.2587,413.7592,,,,,,97,FEM,AGR,150,capa,la,a,0.4329,,413.7604,413.761,0.131380208,-0.262427662,0,0,0,,0,155,155,96,1,,,,
,,,,,,dbf5ef88df93039e1e63c92b,66a626ef09d4e21e1a8894ec,6734b0f433f28e2146fb81e6,2024-11-13_08h06.39.232,Tarea de género gramatical,2024.2.2,MacIntel,59.88023952,,,,,,,,,,,,,,,,,,,,,,,,413.7616,414.9096,l,1,[],[],[],[],[],[],[],0.4671,1,414.9098,415.4097,,,,,,322,MAS,AGR,150,minuto,el,l,0.4671,,415.4097,415.4098,0.131380208,-0.262427662,0,0,0,,0,156,156,321,1,,,,
,,,,,,dbf5ef88df93039e1e63c92b,66a626ef09d4e21e1a8894ec,6734b0f433f28e2146fb81e6,2024-11-13_08h06.39.232,Tarea de género gramatical,2024.2.2,MacIntel,59.88023952,,,,,,,,,,,,,,,,,,,,,,,,415.4113,416.643,a,1,[],[],[],[],[],[],[],0.555,1,416.6432,417.1422,,,,,,375,FEM,DIS,150,cadena,el,a,0.555,,417.1423,417.1424,0.131380208,-0.262427662,0,0,0,,0,157,157,374,1,,,,
,,,,,,dbf5ef88df93039e1e63c92b,66a626ef09d4e21e1a8894ec,6734b0f433f28e2146fb81e6,2024-11-13_08h06.39.232,Tarea de género gramatical,2024.2.2,MacIntel,59.88023952,,,,,,,,,,,,,,,,,,,,,,,,417.1441,418.793,a,1,[],[],[],[],[],[],[],0.9775,1,418.7931,419.2921,,,,,,416,FEM,CON,150,colina,,a,0.9775,,419.2922,419.2923,0.131380208,-0.262427662,0,0,0,,0,158,158,415,1,,,,
,,,,,,dbf5ef88df93039e1e63c92b,66a626ef09d4e21e1a8894ec,6734b0f433f28e2146fb81e6,2024-11-13_08h06.39.232,Tarea de género gramatical,2024.2.2,MacIntel,59.88023952,,,,,,,,,,,,,,,,,,,,,,,,419.294,420.4589,a,1,[],[],[],[],[],[],[],0.5051,1,420.4591,420.959,,,,,,309,FEM,DIS,150,esposa,el,a,0.5051,,420.961,420.9623,0.131380208,-0.262427662,0,0,0,,0,159,159,308,1,,,,
,,,,,,dbf5ef88df93039e1e63c92b,66a626ef09d4e21e1a8894ec,6734b0f433f28e2146fb81e6,2024-11-13_08h06.39.232,Tarea de género gramatical,2024.2.2,MacIntel,59.88023952,,,,,,,,,,,,,,,,,,,,,,,,420.9633,422.3922,l,0,[],[],[],[],[],[],[],0.75,0,422.3938,422.8923,,,,,,225,FEM,DIS,150,pieza,el,a,0.75,,422.8925,422.8926,0.131380208,-0.262427662,0,0,0,,0,160,160,224,1,,,,
,,,,,,dbf5ef88df93039e1e63c92b,66a626ef09d4e21e1a8894ec,6734b0f433f28e2146fb81e6,2024-11-13_08h06.39.232,Tarea de género gramatical,2024.2.2,MacIntel,59.88023952,,,,,,,,,,,,,,,,,,,,,,,,422.8942,424.3265,a,1,[],[],[],[],[],[],[],0.7592,1,424.3277,424.8267,,,,,,121,FEM,AGR,150,pila,la,a,0.7592,,424.8268,424.8269,0.131380208,-0.262427662,0,0,0,,0,161,161,120,1,,,,
,,,,,,dbf5ef88df93039e1e63c92b,66a626ef09d4e21e1a8894ec,6734b0f433f28e2146fb81e6,2024-11-13_08h06.39.232,Tarea de género gramatical,2024.2.2,MacIntel,59.88023952,,,,,,,,,,,,,,,,,,,,,,,,424.8288,425.9766,l,1,[],[],[],[],[],[],[],0.4769,1,425.9768,426.4768,,,,,,256,MAS,AGR,150,techo,el,l,0.4769,,426.4769,426.4771,0.131380208,-0.262427662,0,0,0,,0,162,162,255,1,,,,
,,,,,,dbf5ef88df93039e1e63c92b,66a626ef09d4e21e1a8894ec,6734b0f433f28e2146fb81e6,2024-11-13_08h06.39.232,Tarea de género gramatical,2024.2.2,MacIntel,59.88023952,,,,,,,,,,,,,,,,,,,,,,,,426.4788,427.9928,l,1,[],[],[],[],[],[],[],0.8458,1,427.9929,428.4928,,,,,,132,MAS,DIS,150,velo,la,l,0.8458,,428.493,428.4931,0.131380208,-0.262427662,0,0,0,,0,163,163,131,1,,,,
,,,,,,dbf5ef88df93039e1e63c92b,66a626ef09d4e21e1a8894ec,6734b0f433f28e2146fb81e6,2024-11-13_08h06.39.232,Tarea de género gramatical,2024.2.2,MacIntel,59.88023952,,,,,,,,,,,,,,,,,,,,,,,,428.4948,429.8769,a,1,[],[],[],[],[],[],[],0.7008,1,429.877,430.3769,,,,,,344,FEM,CON,150,pareja,,a,0.7008,,430.3789,430.3802,0.131380208,-0.262427662,0,0,0,,0,164,164,343,1,,,,
,,,,,,dbf5ef88df93039e1e63c92b,66a626ef09d4e21e1a8894ec,6734b0f433f28e2146fb81e6,2024-11-13_08h06.39.232,Tarea de género gramatical,2024.2.2,MacIntel,59.88023952,,,,,,,,,,,,,,,,,,,,,,,,430.3812,431.5269,l,1,[],[],[],[],[],[],[],0.4684,1,431.5271,432.0269,,,,,,149,MAS,CON,150,nudo,,l,0.4684,,432.027,432.0272,0.131380208,-0.262427662,0,0,0,,0,165,165,148,1,,,,
,,,,,,dbf5ef88df93039e1e63c92b,66a626ef09d4e21e1a8894ec,6734b0f433f28e2146fb81e6,2024-11-13_08h06.39.232,Tarea de género gramatical,2024.2.2,MacIntel,59.88023952,,,,,,,,,,,,,,,,,,,,,,,,432.0291,433.2094,l,1,[],[],[],[],[],[],[],0.5096,1,433.2094,433.7103,,,,,,198,MAS,DIS,150,hotel,la,l,0.5096,,433.7104,433.7105,0.131380208,-0.262427662,0,0,0,,0,166,166,197,1,,,,
,,,,,,dbf5ef88df93039e1e63c92b,66a626ef09d4e21e1a8894ec,6734b0f433f28e2146fb81e6,2024-11-13_08h06.39.232,Tarea de género gramatical,2024.2.2,MacIntel,59.88023952,,,,,,,,,,,,,,,,,,,,,,,,433.7123,434.7767,l,1,[],[],[],[],[],[],[],0.3925,1,434.7769,435.277,,,,,,294,MAS,DIS,150,cable,la,l,0.3925,,435.2771,435.2774,0.131380208,-0.262427662,0,0,0,,0,167,167,293,1,,,,
,,,,,,dbf5ef88df93039e1e63c92b,66a626ef09d4e21e1a8894ec,6734b0f433f28e2146fb81e6,2024-11-13_08h06.39.232,Tarea de género gramatical,2024.2.2,MacIntel,59.88023952,,,,,,,,,,,,,,,,,,,,,,,,435.279,436.3605,l,1,[],[],[],[],[],[],[],0.4002,1,436.3606,436.8603,,,,,,36,MAS,DIS,150,dedo,la,l,0.4002,,436.8625,436.8635,0.131380208,-0.262427662,0,0,0,,0,168,168,35,1,,,,
,,,,,,dbf5ef88df93039e1e63c92b,66a626ef09d4e21e1a8894ec,6734b0f433f28e2146fb81e6,2024-11-13_08h06.39.232,Tarea de género gramatical,2024.2.2,MacIntel,59.88023952,,,,,,,,,,,,,,,,,,,,,,,,436.8646,438.177,l,1,[],[],[],[],[],[],[],0.6421,1,438.1771,438.6771,,,,,,418,MAS,AGR,150,pájaro,el,l,0.6421,,438.6771,438.6774,0.131380208,-0.262427662,0,0,0,,0,169,169,417,1,,,,
,,,,,,dbf5ef88df93039e1e63c92b,66a626ef09d4e21e1a8894ec,6734b0f433f28e2146fb81e6,2024-11-13_08h06.39.232,Tarea de género gramatical,2024.2.2,MacIntel,59.88023952,,,,,,,,,,,,,,,,,,,,,,,,438.6793,439.9603,l,1,[],[],[],[],[],[],[],0.6115,1,439.9605,440.4605,,,,,,276,MAS,DIS,150,ritmo,la,l,0.6115,,440.4606,440.4608,0.131380208,-0.262427662,0,0,0,,0,170,170,275,1,,,,
,,,,,,dbf5ef88df93039e1e63c92b,66a626ef09d4e21e1a8894ec,6734b0f433f28e2146fb81e6,2024-11-13_08h06.39.232,Tarea de género gramatical,2024.2.2,MacIntel,59.88023952,,,,,,,,,,,,,,,,,,,,,,,,440.4623,441.5268,l,1,[],[],[],[],[],[],[],0.3874,1,441.527,442.0273,,,,,,88,MAS,AGR,150,pavo,el,l,0.3874,,442.0274,442.0274,0.131380208,-0.262427662,0,0,0,,0,171,171,87,1,,,,
,,,,,,dbf5ef88df93039e1e63c92b,66a626ef09d4e21e1a8894ec,6734b0f433f28e2146fb81e6,2024-11-13_08h06.39.232,Tarea de género gramatical,2024.2.2,MacIntel,59.88023952,,,,,,,,,,,,,,,,,,,,,,,,442.0293,443.1271,a,1,[],[],[],[],[],[],[],0.4281,1,443.1273,443.6273,,,,,,93,FEM,DIS,150,lata,el,a,0.4281,,443.6274,443.6276,0.131380208,-0.262427662,0,0,0,,0,172,172,92,1,,,,
,,,,,,dbf5ef88df93039e1e63c92b,66a626ef09d4e21e1a8894ec,6734b0f433f28e2146fb81e6,2024-11-13_08h06.39.232,Tarea de género gramatical,2024.2.2,MacIntel,59.88023952,,,,,,,,,,,,,,,,,,,,,,,,443.6295,444.7436,l,1,[],[],[],[],[],[],[],0.435,1,444.7436,445.2435,,,,,,318,MAS,DIS,150,pueblo,la,l,0.435,,445.2447,445.2457,0.131380208,-0.262427662,0,0,0,,0,173,173,317,1,,,,
,,,,,,dbf5ef88df93039e1e63c92b,66a626ef09d4e21e1a8894ec,6734b0f433f28e2146fb81e6,2024-11-13_08h06.39.232,Tarea de género gramatical,2024.2.2,MacIntel,59.88023952,,,,,,,,,,,,,,,,,,,,,,,,445.2468,446.7433,l,1,[],[],[],[],[],[],[],0.8263,1,446.7435,447.2441,,,,,,130,MAS,AGR,150,yate,el,l,0.8263,,447.2443,447.2444,0.131380208,-0.262427662,0,0,0,,0,174,174,129,1,,,,
,,,,,,dbf5ef88df93039e1e63c92b,66a626ef09d4e21e1a8894ec,6734b0f433f28e2146fb81e6,2024-11-13_08h06.39.232,Tarea de género gramatical,2024.2.2,MacIntel,59.88023952,,,,,,,,,,,,,,,,,,,,,,,,447.2462,448.2607,l,1,[],[],[],[],[],[],[],0.3338,1,448.2609,448.7603,,,,,,227,MAS,CON,150,vuelo,,l,0.3338,,448.7603,448.7605,0.131380208,-0.262427662,0,0,0,,0,175,175,226,1,,,,
,,,,,,dbf5ef88df93039e1e63c92b,66a626ef09d4e21e1a8894ec,6734b0f433f28e2146fb81e6,2024-11-13_08h06.39.232,Tarea de género gramatical,2024.2.2,MacIntel,59.88023952,,,,,,,,,,,,,,,,,,,,,,,,448.7614,449.9599,a,1,[],[],[],[],[],[],[],0.5192,1,449.9601,450.4608,,,,,,141,FEM,DIS,150,cera,el,a,0.5192,,450.461,450.4611,0.131380208,-0.262427662,0,0,0,,0,176,176,140,1,,,,
,,,,,,dbf5ef88df93039e1e63c92b,66a626ef09d4e21e1a8894ec,6734b0f433f28e2146fb81e6,2024-11-13_08h06.39.232,Tarea de género gramatical,2024.2.2,MacIntel,59.88023952,,,,,,,,,,,,,,,,,,,,,,,,450.463,451.8441,a,1,[],[],[],[],[],[],[],0.7114,1,451.8442,452.3443,,,,,,230,FEM,CON,150,regla,,a,0.7114,,452.3463,452.3476,0.131380208,-0.262427662,0,0,0,,0,177,177,229,1,,,,
,,,,,,dbf5ef88df93039e1e63c92b,66a626ef09d4e21e1a8894ec,6734b0f433f28e2146fb81e6,2024-11-13_08h06.39.232,Tarea de género gramatical,2024.2.2,MacIntel,59.88023952,,,,,,,,,,,,,,,,,,,,,,,,452.3486,453.3776,l,1,[],[],[],[],[],[],[],0.3528,1,453.3778,453.8775,,,,,,126,MAS,DIS,150,lazo,la,l,0.3528,,453.8777,453.8779,0.131380208,-0.262427662,0,0,0,,0,178,178,125,1,,,,
,,,,,,dbf5ef88df93039e1e63c92b,66a626ef09d4e21e1a8894ec,6734b0f433f28e2146fb81e6,2024-11-13_08h06.39.232,Tarea de género gramatical,2024.2.2,MacIntel,59.88023952,,,,,,,,,,,,,,,,,,,,,,,,453.8795,454.9775,l,1,[],[],[],[],[],[],[],0.4284,1,454.9776,455.4776,,,,,,203,MAS,CON,150,novio,,l,0.4284,,455.4777,455.4778,0.131380208,-0.262427662,0,0,0,,0,179,179,202,1,,,,
,,,,,,dbf5ef88df93039e1e63c92b,66a626ef09d4e21e1a8894ec,6734b0f433f28e2146fb81e6,2024-11-13_08h06.39.232,Tarea de género gramatical,2024.2.2,MacIntel,59.88023952,,,,,,,,,,,,,,,,,,,,,,,,455.4796,456.511,a,1,[],[],[],[],[],[],[],0.3505,1,456.5112,457.0101,,,,,,55,FEM,AGR,150,taza,la,a,0.3505,,457.0101,457.0103,0.131380208,-0.262427662,0,0,0,,0,180,180,54,1,,,,
,,,,,,dbf5ef88df93039e1e63c92b,66a626ef09d4e21e1a8894ec,6734b0f433f28e2146fb81e6,2024-11-13_08h06.39.232,Tarea de género gramatical,2024.2.2,MacIntel,59.88023952,,,,,,,,,,,,,,,,,,,,,,,,457.0119,458.0434,a,1,[],[],[],[],[],[],[],0.3522,1,458.0435,458.5436,,,,,,338,FEM,CON,150,abuela,,a,0.3522,,458.5436,458.5439,0.131380208,-0.262427662,0,0,0,,0,181,181,337,1,,,,
,,,,,,dbf5ef88df93039e1e63c92b,66a626ef09d4e21e1a8894ec,6734b0f433f28e2146fb81e6,2024-11-13_08h06.39.232,Tarea de género gramatical,2024.2.2,MacIntel,59.88023952,,,,,,,,,,,,,,,,,,,,,,,,458.5454,459.6936,l,1,[],[],[],[],[],[],[],0.4682,1,459.6938,460.1936,,,,,,215,MAS,CON,150,hueso,,l,0.4682,,460.1954,460.1962,0.131380208,-0.262427662,0,0,0,,0,182,182,214,1,,,,
,,,,,,dbf5ef88df93039e1e63c92b,66a626ef09d4e21e1a8894ec,6734b0f433f28e2146fb81e6,2024-11-13_08h06.39.232,Tarea de género gramatical,2024.2.2,MacIntel,59.88023952,,,,,,,,,,,,,,,,,,,,,,,,460.1972,461.3276,a,1,[],[],[],[],[],[],[],0.4612,1,461.3277,461.8268,,,,,,343,FEM,AGR,150,trampa,la,a,0.4612,,461.8269,461.827,0.131380208,-0.262427662,0,0,0,,0,183,183,342,1,,,,
,,,,,,dbf5ef88df93039e1e63c92b,66a626ef09d4e21e1a8894ec,6734b0f433f28e2146fb81e6,2024-11-13_08h06.39.232,Tarea de género gramatical,2024.2.2,MacIntel,59.88023952,,,,,,,,,,,,,,,,,,,,,,,,461.8286,462.9779,l,0,[],[],[],[],[],[],[],0.4697,0,462.9795,463.4779,,,,,,297,FEM,DIS,150,manta,el,a,0.4697,,463.4779,463.4781,0.131380208,-0.262427662,0,0,0,,0,184,184,296,1,,,,
,,,,,,dbf5ef88df93039e1e63c92b,66a626ef09d4e21e1a8894ec,6734b0f433f28e2146fb81e6,2024-11-13_08h06.39.232,Tarea de género gramatical,2024.2.2,MacIntel,59.88023952,,,,,,,,,,,,,,,,,,,,,,,,463.4799,465.0444,l,0,[],[],[],[],[],[],[],0.8941,0,465.0446,465.5446,,,,,,259,FEM,AGR,150,prima,la,a,0.8941,,465.5447,465.5448,0.131380208,-0.262427662,0,0,0,,0,185,185,258,1,,,,
,,,,,,dbf5ef88df93039e1e63c92b,66a626ef09d4e21e1a8894ec,6734b0f433f28e2146fb81e6,2024-11-13_08h06.39.232,Tarea de género gramatical,2024.2.2,MacIntel,59.88023952,,,,,,,,,,,,,,,,,,,,,,,,465.5464,467.0779,a,1,[],[],[],[],[],[],[],0.8502,1,467.0789,467.5774,,,,,,158,FEM,CON,150,chica,,a,0.8502,,467.5793,467.5805,0.131380208,-0.262427662,0,0,0,,0,186,186,157,1,,,,
,,,,,,dbf5ef88df93039e1e63c92b,66a626ef09d4e21e1a8894ec,6734b0f433f28e2146fb81e6,2024-11-13_08h06.39.232,Tarea de género gramatical,2024.2.2,MacIntel,59.88023952,,,,,,,,,,,,,,,,,,,,,,,,467.5815,468.8605,a,1,[],[],[],[],[],[],[],0.6003,1,468.8607,469.3605,,,,,,327,FEM,DIS,150,tienda,el,a,0.6003,,469.3606,469.3608,0.131380208,-0.262427662,0,0,0,,0,187,187,326,1,,,,
,,,,,,dbf5ef88df93039e1e63c92b,66a626ef09d4e21e1a8894ec,6734b0f433f28e2146fb81e6,2024-11-13_08h06.39.232,Tarea de género gramatical,2024.2.2,MacIntel,59.88023952,,,,,,,,,,,,,,,,,,,,,,,,469.3626,470.4604,l,0,[],[],[],[],[],[],[],0.4246,0,470.4614,470.9615,,,,,,201,FEM,DIS,150,leche,el,a,0.4246,,470.9615,470.9617,0.131380208,-0.262427662,0,0,0,,0,188,188,200,1,,,,
,,,,,,dbf5ef88df93039e1e63c92b,66a626ef09d4e21e1a8894ec,6734b0f433f28e2146fb81e6,2024-11-13_08h06.39.232,Tarea de género gramatical,2024.2.2,MacIntel,59.88023952,,,,,,,,,,,,,,,,,,,,,,,,470.9635,472.377,l,1,[],[],[],[],[],[],[],0.7448,1,472.3782,472.8782,,,,,,244,MAS,AGR,150,hielo,el,l,0.7448,,472.8782,472.8784,0.131380208,-0.262427662,0,0,0,,0,189,189,243,1,,,,
,,,,,,dbf5ef88df93039e1e63c92b,66a626ef09d4e21e1a8894ec,6734b0f433f28e2146fb81e6,2024-11-13_08h06.39.232,Tarea de género gramatical,2024.2.2,MacIntel,59.88023952,,,,,,,,,,,,,,,,,,,,,,,,472.8801,473.944,l,1,[],[],[],[],[],[],[],0.3883,1,473.9442,474.4448,,,,,,394,MAS,AGR,150,examen,el,l,0.3883,,474.4449,474.4451,0.131380208,-0.262427662,0,0,0,,0,190,190,393,1,,,,
,,,,,,dbf5ef88df93039e1e63c92b,66a626ef09d4e21e1a8894ec,6734b0f433f28e2146fb81e6,2024-11-13_08h06.39.232,Tarea de género gramatical,2024.2.2,MacIntel,59.88023952,,,,,,,,,,,,,,,,,,,,,,,,474.4466,475.6113,l,1,[],[],[],[],[],[],[],0.4837,1,475.6114,476.1116,,,,,,10,MAS,AGR,150,niño,el,l,0.4837,,476.1134,476.1144,0.131380208,-0.262427662,0,0,0,,0,191,191,9,1,,,,
,,,,,,dbf5ef88df93039e1e63c92b,66a626ef09d4e21e1a8894ec,6734b0f433f28e2146fb81e6,2024-11-13_08h06.39.232,Tarea de género gramatical,2024.2.2,MacIntel,59.88023952,,,,,,,,,,,,,,,,,,,,,,,,476.1152,477.5772,a,1,[],[],[],[],[],[],[],0.7917,1,477.5772,478.0775,,,,,,369,FEM,DIS,150,camisa,el,a,0.7917,,478.0776,478.0777,0.131380208,-0.262427662,0,0,0,,0,192,192,368,1,,,,
,,,,,,dbf5ef88df93039e1e63c92b,66a626ef09d4e21e1a8894ec,6734b0f433f28e2146fb81e6,2024-11-13_08h06.39.232,Tarea de género gramatical,2024.2.2,MacIntel,59.88023952,,,,,,,,,,,,,,,,,,,,,,,,478.0794,479.2272,l,1,[],[],[],[],[],[],[],0.4677,1,479.2274,479.7277,,,,,,167,MAS,CON,150,juego,,l,0.4677,,479.7279,479.7281,0.131380208,-0.262427662,0,0,0,,0,193,193,166,1,,,,
,,,,,,dbf5ef88df93039e1e63c92b,66a626ef09d4e21e1a8894ec,6734b0f433f28e2146fb81e6,2024-11-13_08h06.39.232,Tarea de género gramatical,2024.2.2,MacIntel,59.88023952,,,,,,,,,,,,,,,,,,,,,,,,479.7301,480.845,a,1,[],[],[],[],[],[],[],0.4373,1,480.8451,481.3453,,,,,,19,FEM,AGR,150,niña,la,a,0.4373,,481.3453,481.3456,0.131380208,-0.262427662,0,0,0,,0,194,194,18,1,,,,
,,,,,,dbf5ef88df93039e1e63c92b,66a626ef09d4e21e1a8894ec,6734b0f433f28e2146fb81e6,2024-11-13_08h06.39.232,Tarea de género gramatical,2024.2.2,MacIntel,59.88023952,,,,,,,,,,,,,,,,,,,,,,,,481.3472,482.6275,l,1,[],[],[],[],[],[],[],0.6017,1,482.6277,483.1284,,,,,,413,MAS,CON,150,diario,,l,0.6017,,483.1307,483.1318,0.131380208,-0.262427662,0,0,0,,0,195,195,412,1,,,,
,,,,,,dbf5ef88df93039e1e63c92b,66a626ef09d4e21e1a8894ec,6734b0f433f28e2146fb81e6,2024-11-13_08h06.39.232,Tarea de género gramatical,2024.2.2,MacIntel,59.88023952,,,,,,,,,,,,,,,,,,,,,,,,483.1328,484.3615,a,1,[],[],[],[],[],[],[],0.56,1,484.3617,484.8619,,,,,,273,FEM,DIS,150,tarta,el,a,0.56,,484.862,484.8621,0.131380208,-0.262427662,0,0,0,,0,196,196,272,1,,,,
,,,,,,dbf5ef88df93039e1e63c92b,66a626ef09d4e21e1a8894ec,6734b0f433f28e2146fb81e6,2024-11-13_08h06.39.232,Tarea de género gramatical,2024.2.2,MacIntel,59.88023952,,,,,,,,,,,,,,,,,,,,,,,,484.8638,486.3118,l,0,[],[],[],[],[],[],[],0.7663,0,486.3132,486.812,,,,,,255,FEM,DIS,150,tribu,el,a,0.7663,,486.812,486.8122,0.131380208,-0.262427662,0,0,0,,0,197,197,254,1,,,,
,,,,,,dbf5ef88df93039e1e63c92b,66a626ef09d4e21e1a8894ec,6734b0f433f28e2146fb81e6,2024-11-13_08h06.39.232,Tarea de género gramatical,2024.2.2,MacIntel,59.88023952,,,,,,,,,,,,,,,,,,,,,,,,486.8138,487.9789,l,1,[],[],[],[],[],[],[],0.496,1,487.98,488.4787,,,,,,11,MAS,CON,150,país,,l,0.496,,488.4788,488.4789,0.131380208,-0.262427662,0,0,0,,0,198,198,10,1,,,,
,,,,,,dbf5ef88df93039e1e63c92b,66a626ef09d4e21e1a8894ec,6734b0f433f28e2146fb81e6,2024-11-13_08h06.39.232,Tarea de género gramatical,2024.2.2,MacIntel,59.88023952,,,,,,,,,,,,,,,,,,,,,,,,488.4806,489.5954,a,1,[],[],[],[],[],[],[],0.4331,1,489.5955,490.0951,,,,,,200,FEM,CON,150,silla,,a,0.4331,,490.0952,490.0953,0.131380208,-0.262427662,0,0,0,,0,199,199,199,1,,,,
,,,,,,dbf5ef88df93039e1e63c92b,66a626ef09d4e21e1a8894ec,6734b0f433f28e2146fb81e6,2024-11-13_08h06.39.232,Tarea de género gramatical,2024.2.2,MacIntel,59.88023952,,,,,,,,,,,,,,,,,,,,,,,,490.0966,491.2786,a,1,[],[],[],[],[],[],[],0.5022,1,491.2788,491.7785,,,,,,14,FEM,CON,150,cara,,a,0.5022,,491.78,491.781,0.131380208,-0.262427662,0,0,0,,0,200,200,13,1,,,,
,,,,,,dbf5ef88df93039e1e63c92b,66a626ef09d4e21e1a8894ec,6734b0f433f28e2146fb81e6,2024-11-13_08h06.39.232,Tarea de género gramatical,2024.2.2,MacIntel,59.88023952,,,,,,,,,,,,,,,,,,,,,,,,491.7818,493.2788,a,1,[],[],[],[],[],[],[],0.8287,1,493.279,493.7786,,,,,,301,FEM,AGR,150,verdad,la,a,0.8287,,493.7787,493.7788,0.131380208,-0.262427662,0,0,0,,0,201,201,300,1,,,,
,,,,,,dbf5ef88df93039e1e63c92b,66a626ef09d4e21e1a8894ec,6734b0f433f28e2146fb81e6,2024-11-13_08h06.39.232,Tarea de género gramatical,2024.2.2,MacIntel,59.88023952,,,,,,,,,,,,,,,,,,,,,,,,493.7803,495.0787,a,1,[],[],[],[],[],[],[],0.6253,1,495.0788,495.5786,,,,,,361,FEM,AGR,150,oferta,la,a,0.6253,,495.5787,495.5789,0.131380208,-0.262427662,0,0,0,,0,202,202,360,1,,,,
,,,,,,dbf5ef88df93039e1e63c92b,66a626ef09d4e21e1a8894ec,6734b0f433f28e2146fb81e6,2024-11-13_08h06.39.232,Tarea de género gramatical,2024.2.2,MacIntel,59.88023952,,,,,,,,,,,,,,,,,,,,,,,,495.5805,496.7288,a,1,[],[],[],[],[],[],[],0.4788,1,496.729,497.2289,,,,,,254,FEM,CON,150,caída,,a,0.4788,,497.229,497.2291,0.131380208,-0.262427662,0,0,0,,0,203,203,253,1,,,,
,,,,,,dbf5ef88df93039e1e63c92b,66a626ef09d4e21e1a8894ec,6734b0f433f28e2146fb81e6,2024-11-13_08h06.39.232,Tarea de género gramatical,2024.2.2,MacIntel,59.88023952,,,,,,,,,,,,,,,,,,,,,,,,497.2308,498.3281,a,1,[],[],[],[],[],[],[],0.427,1,498.3283,498.8288,,,,,,63,FEM,DIS,150,fila,el,a,0.427,,498.8304,498.8313,0.131380208,-0.262427662,0,0,0,,0,204,204,62,1,,,,
,,,,,,dbf5ef88df93039e1e63c92b,66a626ef09d4e21e1a8894ec,6734b0f433f28e2146fb81e6,2024-11-13_08h06.39.232,Tarea de género gramatical,2024.2.2,MacIntel,59.88023952,,,,,,,,,,,,,,,,,,,,,,,,498.8322,500.079,a,1,[],[],[],[],[],[],[],0.5707,1,500.0792,500.5791,,,,,,303,FEM,DIS,150,maldad,el,a,0.5707,,500.5791,500.5792,0.131380208,-0.262427662,0,0,0,,0,205,205,302,1,,,,
,,,,,,dbf5ef88df93039e1e63c92b,66a626ef09d4e21e1a8894ec,6734b0f433f28e2146fb81e6,2024-11-13_08h06.39.232,Tarea de género gramatical,2024.2.2,MacIntel,59.88023952,,,,,,,,,,,,,,,,,,,,,,,,500.5811,501.6789,a,1,[],[],[],[],[],[],[],0.4168,1,501.679,502.1791,,,,,,139,FEM,AGR,150,pipa,la,a,0.4168,,502.1791,502.1793,0.131380208,-0.262427662,0,0,0,,0,206,206,138,1,,,,
,,,,,,dbf5ef88df93039e1e63c92b,66a626ef09d4e21e1a8894ec,6734b0f433f28e2146fb81e6,2024-11-13_08h06.39.232,Tarea de género gramatical,2024.2.2,MacIntel,59.88023952,,,,,,,,,,,,,,,,,,,,,,,,502.181,503.229,a,1,[],[],[],[],[],[],[],0.3693,1,503.2292,503.7292,,,,,,362,FEM,CON,150,fuente,,a,0.3693,,503.7293,503.7294,0.131380208,-0.262427662,0,0,0,,0,207,207,361,1,,,,
,,,,,,dbf5ef88df93039e1e63c92b,66a626ef09d4e21e1a8894ec,6734b0f433f28e2146fb81e6,2024-11-13_08h06.39.232,Tarea de género gramatical,2024.2.2,MacIntel,59.88023952,,,,,,,,,,,,,,,,,,,,,,,,503.7313,504.913,l,1,[],[],[],[],[],[],[],0.5133,1,504.9132,505.4123,,,,,,239,MAS,CON,150,reloj,,l,0.5133,,505.4125,505.4126,0.131380208,-0.262427662,0,0,0,,0,208,208,238,1,,,,
,,,,,,dbf5ef88df93039e1e63c92b,66a626ef09d4e21e1a8894ec,6734b0f433f28e2146fb81e6,2024-11-13_08h06.39.232,Tarea de género gramatical,2024.2.2,MacIntel,59.88023952,,,,,,,,,,,,,,,,,,,,,,,,505.4142,506.6793,a,1,[],[],[],[],[],[],[],0.5953,1,506.6794,507.1792,,,,,,265,FEM,AGR,150,rueda,la,a,0.5953,,507.1811,507.1822,0.131380208,-0.262427662,0,0,0,,0,209,209,264,1,,,,
,,,,,,dbf5ef88df93039e1e63c92b,66a626ef09d4e21e1a8894ec,6734b0f433f28e2146fb81e6,2024-11-13_08h06.39.232,Tarea de género gramatical,2024.2.2,MacIntel,59.88023952,,,,,,,,,,,,,,,,,,,,,,,,507.1831,508.4125,a,1,[],[],[],[],[],[],[],0.5614,1,508.4126,508.9126,,,,,,32,FEM,CON,150,caja,,a,0.5614,,508.9127,508.9129,0.131380208,-0.262427662,0,0,0,,0,210,210,31,1,,,,
,,,,,,dbf5ef88df93039e1e63c92b,66a626ef09d4e21e1a8894ec,6734b0f433f28e2146fb81e6,2024-11-13_08h06.39.232,Tarea de género gramatical,2024.2.2,MacIntel,59.88023952,,,,,,,,,,,,,,,,,,,,,,,,508.9146,510.2623,l,1,[],[],[],[],[],[],[],0.675,1,510.2624,510.7614,,,,,,46,MAS,AGR,150,odio,el,l,0.675,,510.7614,510.7616,0.131380208,-0.262427662,0,0,0,,0,211,211,45,1,,,,
,,,,,,dbf5ef88df93039e1e63c92b,66a626ef09d4e21e1a8894ec,6734b0f433f28e2146fb81e6,2024-11-13_08h06.39.232,Tarea de género gramatical,2024.2.2,MacIntel,59.88023952,,,,,,,,,,,,,,,,,,,,,,,,510.7627,511.8458,a,1,[],[],[],[],[],[],[],0.4294,1,511.8461,512.3461,,,,,,169,FEM,AGR,150,vista,la,a,0.4294,,512.3461,512.3463,0.131380208,-0.262427662,0,0,0,,0,212,212,168,1,,,,
,,,,,,dbf5ef88df93039e1e63c92b,66a626ef09d4e21e1a8894ec,6734b0f433f28e2146fb81e6,2024-11-13_08h06.39.232,Tarea de género gramatical,2024.2.2,MacIntel,59.88023952,,,,,,,,,,,,,,,,,,,,,,,,512.348,513.462,l,1,[],[],[],[],[],[],[],0.438,1,513.4622,513.9626,,,,,,245,MAS,CON,150,turno,,l,0.438,,513.964,513.9648,0.131380208,-0.262427662,0,0,0,,0,213,213,244,1,,,,
,,,,,,dbf5ef88df93039e1e63c92b,66a626ef09d4e21e1a8894ec,6734b0f433f28e2146fb81e6,2024-11-13_08h06.39.232,Tarea de género gramatical,2024.2.2,MacIntel,59.88023952,,,,,,,,,,,,,,,,,,,,,,,,513.9657,515.0291,a,1,[],[],[],[],[],[],[],0.392,1,515.0293,515.5297,,,,,,123,FEM,DIS,150,tela,el,a,0.392,,515.5298,515.53,0.131380208,-0.262427662,0,0,0,,0,214,214,122,1,,,,
,,,,,,dbf5ef88df93039e1e63c92b,66a626ef09d4e21e1a8894ec,6734b0f433f28e2146fb81e6,2024-11-13_08h06.39.232,Tarea de género gramatical,2024.2.2,MacIntel,59.88023952,,,,,,,,,,,,,,,,,,,,,,,,515.5316,516.6459,a,0,[],[],[],[],[],[],[],0.4343,0,516.6471,517.1462,,,,,,29,MAS,CON,150,frío,,l,0.4343,,517.1463,517.1465,0.131380208,-0.262427662,0,0,0,,0,215,215,28,1,,,,
,,,,,,dbf5ef88df93039e1e63c92b,66a626ef09d4e21e1a8894ec,6734b0f433f28e2146fb81e6,2024-11-13_08h06.39.232,Tarea de género gramatical,2024.2.2,MacIntel,59.88023952,,,,,,,,,,,,,,,,,,,,,,,,517.1482,518.4631,l,1,[],[],[],[],[],[],[],0.6336,1,518.4645,518.963,,,,,,4,MAS,AGR,150,hijo,el,l,0.6336,,518.963,518.9632,0.131380208,-0.262427662,0,0,0,,0,216,216,3,1,,,,
,,,,,,dbf5ef88df93039e1e63c92b,66a626ef09d4e21e1a8894ec,6734b0f433f28e2146fb81e6,2024-11-13_08h06.39.232,Tarea de género gramatical,2024.2.2,MacIntel,59.88023952,,,,,,,,,,,,,,,,,,,,,,,,518.9649,520.2964,a,1,[],[],[],[],[],[],[],0.6502,1,520.2966,520.7962,,,,,,147,FEM,DIS,150,grúa,el,a,0.6502,,520.7963,520.7965,0.131380208,-0.262427662,0,0,0,,0,217,217,146,1,,,,
,,,,,,dbf5ef88df93039e1e63c92b,66a626ef09d4e21e1a8894ec,6734b0f433f28e2146fb81e6,2024-11-13_08h06.39.232,Tarea de género gramatical,2024.2.2,MacIntel,59.88023952,,,,,,,,,,,,,,,,,,,,,,,,520.7981,522.1463,l,1,[],[],[],[],[],[],[],0.6723,1,522.1465,522.6464,,,,,,305,MAS,CON,150,hombre,,l,0.6723,,522.6483,522.6495,0.131380208,-0.262427662,0,0,0,,0,218,218,304,1,,,,
,,,,,,dbf5ef88df93039e1e63c92b,66a626ef09d4e21e1a8894ec,6734b0f433f28e2146fb81e6,2024-11-13_08h06.39.232,Tarea de género gramatical,2024.2.2,MacIntel,59.88023952,,,,,,,,,,,,,,,,,,,,,,,,522.6504,523.8129,l,1,[],[],[],[],[],[],[],0.4856,1,523.813,524.3131,,,,,,18,MAS,DIS,150,tren,la,l,0.4856,,524.3132,524.3134,0.131380208,-0.262427662,0,0,0,,0,219,219,17,1,,,,
,,,,,,dbf5ef88df93039e1e63c92b,66a626ef09d4e21e1a8894ec,6734b0f433f28e2146fb81e6,2024-11-13_08h06.39.232,Tarea de género gramatical,2024.2.2,MacIntel,59.88023952,,,,,,,,,,,,,,,,,,,,,,,,524.3151,525.4303,l,1,[],[],[],[],[],[],[],0.4459,1,525.4306,525.9298,,,,,,401,MAS,CON,150,abrigo,,l,0.4459,,525.9299,525.9302,0.131380208,-0.262427662,0,0,0,,0,220,220,400,1,,,,
,,,,,,dbf5ef88df93039e1e63c92b,66a626ef09d4e21e1a8894ec,6734b0f433f28e2146fb81e6,2024-11-13_08h06.39.232,Tarea de género gramatical,2024.2.2,MacIntel,59.88023952,,,,,,,,,,,,,,,,,,,,,,,,525.9319,527.1631,l,1,[],[],[],[],[],[],[],0.5619,1,527.1633,527.6627,,,,,,442,MAS,AGR,150,cuadro,el,l,0.5619,,527.6627,527.663,0.131380208,-0.262427662,0,0,0,,0,221,221,441,1,,,,
,,,,,,dbf5ef88df93039e1e63c92b,66a626ef09d4e21e1a8894ec,6734b0f433f28e2146fb81e6,2024-11-13_08h06.39.232,Tarea de género gramatical,2024.2.2,MacIntel,59.88023952,,,,,,,,,,,,,,,,,,,,,,,,527.6644,528.7296,l,1,[],[],[],[],[],[],[],0.3837,1,528.7297,529.23,,,,,,94,MAS,AGR,150,cabo,el,l,0.3837,,529.2321,529.2334,0.131380208,-0.262427662,0,0,0,,0,222,222,93,1,,,,
,,,,,,dbf5ef88df93039e1e63c92b,66a626ef09d4e21e1a8894ec,6734b0f433f28e2146fb81e6,2024-11-13_08h06.39.232,Tarea de género gramatical,2024.2.2,MacIntel,59.88023952,,,,,,,,,,,,,,,,,,,,,,,,529.2343,530.4135,l,1,[],[],[],[],[],[],[],0.5011,1,530.4137,530.9133,,,,,,53,MAS,CON,150,vaso,,l,0.5011,,530.9134,530.9136,0.131380208,-0.262427662,0,0,0,,0,223,223,52,1,,,,
,,,,,,dbf5ef88df93039e1e63c92b,66a626ef09d4e21e1a8894ec,6734b0f433f28e2146fb81e6,2024-11-13_08h06.39.232,Tarea de género gramatical,2024.2.2,MacIntel,59.88023952,,,,,,,,,,,,,,,,,,,,,,,,530.9153,532.1131,a,1,[],[],[],[],[],[],[],0.5282,1,532.1132,532.6134,,,,,,85,FEM,AGR,150,gira,la,a,0.5282,,532.6134,532.6136,0.131380208,-0.262427662,0,0,0,,0,224,224,84,1,,,,
,,,,,,dbf5ef88df93039e1e63c92b,66a626ef09d4e21e1a8894ec,6734b0f433f28e2146fb81e6,2024-11-13_08h06.39.232,Tarea de género gramatical,2024.2.2,MacIntel,59.88023952,,,,,,,,,,,,,,,,,,,,,,,,532.6153,533.8465,l,1,[],[],[],[],[],[],[],0.5501,1,533.8467,534.3467,,,,,,124,MAS,AGR,150,clan,el,l,0.5501,,534.3468,534.347,0.131380208,-0.262427662,0,0,0,,0,225,225,123,1,,,,
,,,,,,dbf5ef88df93039e1e63c92b,66a626ef09d4e21e1a8894ec,6734b0f433f28e2146fb81e6,2024-11-13_08h06.39.232,Tarea de género gramatical,2024.2.2,MacIntel,59.88023952,,,,,,,,,,,,,,,,,,,,,,,,534.3491,536.1625,l,1,[],[],[],[],[],[],[],1.1375,1,536.1628,536.6635,,,,,,252,MAS,DIS,150,viejo,la,l,1.1375,,536.6636,536.6637,0.131380208,-0.262427662,0,0,0,,0,226,226,251,1,,,,
,,,,,,dbf5ef88df93039e1e63c92b,66a626ef09d4e21e1a8894ec,6734b0f433f28e2146fb81e6,2024-11-13_08h06.39.232,Tarea de género gramatical,2024.2.2,MacIntel,59.88023952,,,,,,,,,,,,,,,,,,,,,,,,536.6654,537.83,a,1,[],[],[],[],[],[],[],0.4952,1,537.8301,538.3302,,,,,,39,FEM,DIS,150,luna,el,a,0.4952,,538.3321,538.3332,0.131380208,-0.262427662,0,0,0,,0,227,227,38,1,,,,
,,,,,,dbf5ef88df93039e1e63c92b,66a626ef09d4e21e1a8894ec,6734b0f433f28e2146fb81e6,2024-11-13_08h06.39.232,Tarea de género gramatical,2024.2.2,MacIntel,59.88023952,,,,,,,,,,,,,,,,,,,,,,,,538.3341,539.5468,a,1,[],[],[],[],[],[],[],0.5342,1,539.5469,540.0469,,,,,,291,FEM,DIS,150,aguja,el,a,0.5342,,540.0469,540.0472,0.131380208,-0.262427662,0,0,0,,0,228,228,290,1,,,,
,,,,,,dbf5ef88df93039e1e63c92b,66a626ef09d4e21e1a8894ec,6734b0f433f28e2146fb81e6,2024-11-13_08h06.39.232,Tarea de género gramatical,2024.2.2,MacIntel,59.88023952,,,,,,,,,,,,,,,,,,,,,,,,540.0488,541.3136,a,1,[],[],[],[],[],[],[],0.5866,1,541.3137,541.8136,,,,,,410,FEM,CON,150,piedad,,a,0.5866,,541.8137,541.814,0.131380208,-0.262427662,0,0,0,,0,229,229,409,1,,,,
,,,,,,dbf5ef88df93039e1e63c92b,66a626ef09d4e21e1a8894ec,6734b0f433f28e2146fb81e6,2024-11-13_08h06.39.232,Tarea de género gramatical,2024.2.2,MacIntel,59.88023952,,,,,,,,,,,,,,,,,,,,,,,,541.8158,542.9635,a,1,[],[],[],[],[],[],[],0.4783,1,542.9637,543.4637,,,,,,278,FEM,CON,150,presa,,a,0.4783,,543.4638,543.464,0.131380208,-0.262427662,0,0,0,,0,230,230,277,1,,,,
,,,,,,dbf5ef88df93039e1e63c92b,66a626ef09d4e21e1a8894ec,6734b0f433f28e2146fb81e6,2024-11-13_08h06.39.232,Tarea de género gramatical,2024.2.2,MacIntel,59.88023952,,,,,,,,,,,,,,,,,,,,,,,,543.4656,544.5473,l,1,[],[],[],[],[],[],[],0.4047,1,544.5474,545.0471,,,,,,192,MAS,DIS,150,grupo,la,l,0.4047,,545.0489,545.0502,0.131380208,-0.262427662,0,0,0,,0,231,231,191,1,,,,
,,,,,,dbf5ef88df93039e1e63c92b,66a626ef09d4e21e1a8894ec,6734b0f433f28e2146fb81e6,2024-11-13_08h06.39.232,Tarea de género gramatical,2024.2.2,MacIntel,59.88023952,,,,,,,,,,,,,,,,,,,,,,,,545.0512,546.097,l,1,[],[],[],[],[],[],[],0.3671,1,546.0972,546.5972,,,,,,64,MAS,AGR,150,saco,el,l,0.3671,,546.5972,546.5974,0.131380208,-0.262427662,0,0,0,,0,232,232,63,1,,,,
,,,,,,dbf5ef88df93039e1e63c92b,66a626ef09d4e21e1a8894ec,6734b0f433f28e2146fb81e6,2024-11-13_08h06.39.232,Tarea de género gramatical,2024.2.2,MacIntel,59.88023952,,,,,,,,,,,,,,,,,,,,,,,,546.5991,547.597,l,1,[],[],[],[],[],[],[],0.3263,1,547.5971,548.0971,,,,,,142,MAS,AGR,150,lodo,el,l,0.3263,,548.0973,548.0974,0.131380208,-0.262427662,0,0,0,,0,233,233,141,1,,,,
,,,,,,dbf5ef88df93039e1e63c92b,66a626ef09d4e21e1a8894ec,6734b0f433f28e2146fb81e6,2024-11-13_08h06.39.232,Tarea de género gramatical,2024.2.2,MacIntel,59.88023952,,,,,,,,,,,,,,,,,,,,,,,,548.0992,549.2139,a,1,[],[],[],[],[],[],[],0.4449,1,549.214,549.7134,,,,,,295,FEM,AGR,150,grasa,la,a,0.4449,,549.7135,549.7138,0.131380208,-0.262427662,0,0,0,,0,234,234,294,1,,,,
,,,,,,dbf5ef88df93039e1e63c92b,66a626ef09d4e21e1a8894ec,6734b0f433f28e2146fb81e6,2024-11-13_08h06.39.232,Tarea de género gramatical,2024.2.2,MacIntel,59.88023952,,,,,,,,,,,,,,,,,,,,,,,,549.7155,550.8465,l,1,[],[],[],[],[],[],[],0.4522,1,550.8466,551.3473,,,,,,148,MAS,AGR,150,surf,el,l,0.4522,,551.3474,551.3476,0.131380208,-0.262427662,0,0,0,,0,235,235,147,1,,,,
,,,,,,dbf5ef88df93039e1e63c92b,66a626ef09d4e21e1a8894ec,6734b0f433f28e2146fb81e6,2024-11-13_08h06.39.232,Tarea de género gramatical,2024.2.2,MacIntel,59.88023952,,,,,,,,,,,,,,,,,,,,,,,,551.3493,552.9137,l,1,[],[],[],[],[],[],[],0.8935,1,552.9139,553.4129,,,,,,340,MAS,AGR,150,pasado,el,l,0.8935,,553.4148,553.4158,0.131380208,-0.262427662,0,0,0,,0,236,236,339,1,,,,
,,,,,,dbf5ef88df93039e1e63c92b,66a626ef09d4e21e1a8894ec,6734b0f433f28e2146fb81e6,2024-11-13_08h06.39.232,Tarea de género gramatical,2024.2.2,MacIntel,59.88023952,,,,,,,,,,,,,,,,,,,,,,,,553.4167,554.4134,l,1,[],[],[],[],[],[],[],0.3278,1,554.4135,554.9139,,,,,,406,MAS,AGR,150,premio,el,l,0.3278,,554.914,554.9142,0.131380208,-0.262427662,0,0,0,,0,237,237,405,1,,,,
,,,,,,dbf5ef88df93039e1e63c92b,66a626ef09d4e21e1a8894ec,6734b0f433f28e2146fb81e6,2024-11-13_08h06.39.232,Tarea de género gramatical,2024.2.2,MacIntel,59.88023952,,,,,,,,,,,,,,,,,,,,,,,,554.9159,556.0474,a,1,[],[],[],[],[],[],[],0.4506,1,556.0475,556.5474,,,,,,441,FEM,DIS,150,medida,el,a,0.4506,,556.5475,556.5477,0.131380208,-0.262427662,0,0,0,,0,238,238,440,1,,,,
,,,,,,dbf5ef88df93039e1e63c92b,66a626ef09d4e21e1a8894ec,6734b0f433f28e2146fb81e6,2024-11-13_08h06.39.232,Tarea de género gramatical,2024.2.2,MacIntel,59.88023952,,,,,,,,,,,,,,,,,,,,,,,,556.5494,557.7308,l,1,[],[],[],[],[],[],[],0.5037,1,557.7309,558.2308,,,,,,138,MAS,DIS,150,luto,la,l,0.5037,,558.231,558.2311,0.131380208,-0.262427662,0,0,0,,0,239,239,137,1,,,,
,,,,,,dbf5ef88df93039e1e63c92b,66a626ef09d4e21e1a8894ec,6734b0f433f28e2146fb81e6,2024-11-13_08h06.39.232,Tarea de género gramatical,2024.2.2,MacIntel,59.88023952,,,,,,,,,,,,,,,,,,,,,,,,558.2328,559.4307,a,1,[],[],[],[],[],[],[],0.5195,1,559.4309,559.9307,,,,,,355,FEM,AGR,150,mirada,la,a,0.5195,,559.9329,559.9342,0.131380208,-0.262427662,0,0,0,,0,240,240,354,1,,,,
,,,,,,dbf5ef88df93039e1e63c92b,66a626ef09d4e21e1a8894ec,6734b0f433f28e2146fb81e6,2024-11-13_08h06.39.232,Tarea de género gramatical,2024.2.2,MacIntel,59.88023952,,,,,,,,,,,,,,,,,,,,,,,,559.9352,561.2143,l,1,[],[],[],[],[],[],[],0.6003,1,561.2145,561.7144,,,,,,23,MAS,CON,150,rato,,l,0.6003,,561.7145,561.7147,0.131380208,-0.262427662,0,0,0,,0,241,241,22,1,,,,
,,,,,,dbf5ef88df93039e1e63c92b,66a626ef09d4e21e1a8894ec,6734b0f433f28e2146fb81e6,2024-11-13_08h06.39.232,Tarea de género gramatical,2024.2.2,MacIntel,59.88023952,,,,,,,,,,,,,,,,,,,,,,,,561.7164,563.1642,a,0,[],[],[],[],[],[],[],0.7667,0,563.1657,563.6645,,,,,,448,MAS,AGR,150,aceite,el,l,0.7667,,563.6646,563.6648,0.131380208,-0.262427662,0,0,0,,0,242,242,447,1,,,,
,,,,,,dbf5ef88df93039e1e63c92b,66a626ef09d4e21e1a8894ec,6734b0f433f28e2146fb81e6,2024-11-13_08h06.39.232,Tarea de género gramatical,2024.2.2,MacIntel,59.88023952,,,,,,,,,,,,,,,,,,,,,,,,563.6665,564.9308,a,1,[],[],[],[],[],[],[],0.5919,1,564.9319,565.4312,,,,,,421,FEM,AGR,150,novela,la,a,0.5919,,565.4313,565.4315,0.131380208,-0.262427662,0,0,0,,0,243,243,420,1,,,,
,,,,,,dbf5ef88df93039e1e63c92b,66a626ef09d4e21e1a8894ec,6734b0f433f28e2146fb81e6,2024-11-13_08h06.39.232,Tarea de género gramatical,2024.2.2,MacIntel,59.88023952,,,,,,,,,,,,,,,,,,,,,,,,565.4332,566.4977,a,1,[],[],[],[],[],[],[],0.387,1,566.4979,566.9977,,,,,,134,FEM,CON,150,rama,,a,0.387,,566.9978,566.998,0.131380208,-0.262427662,0,0,0,,0,244,244,133,1,,,,
,,,,,,dbf5ef88df93039e1e63c92b,66a626ef09d4e21e1a8894ec,6734b0f433f28e2146fb81e6,2024-11-13_08h06.39.232,Tarea de género gramatical,2024.2.2,MacIntel,59.88023952,,,,,,,,,,,,,,,,,,,,,,,,566.9997,568.0644,a,1,[],[],[],[],[],[],[],0.3861,1,568.0645,568.5644,,,,,,381,FEM,DIS,150,bebida,el,a,0.3861,,568.5662,568.5673,0.131380208,-0.262427662,0,0,0,,0,245,245,380,1,,,,
,,,,,,dbf5ef88df93039e1e63c92b,66a626ef09d4e21e1a8894ec,6734b0f433f28e2146fb81e6,2024-11-13_08h06.39.232,Tarea de género gramatical,2024.2.2,MacIntel,59.88023952,,,,,,,,,,,,,,,,,,,,,,,,568.5682,569.6638,a,1,[],[],[],[],[],[],[],0.4196,1,569.664,570.1646,,,,,,351,FEM,DIS,150,espada,el,a,0.4196,,570.1648,570.1649,0.131380208,-0.262427662,0,0,0,,0,246,246,350,1,,,,
,,,,,,dbf5ef88df93039e1e63c92b,66a626ef09d4e21e1a8894ec,6734b0f433f28e2146fb81e6,2024-11-13_08h06.39.232,Tarea de género gramatical,2024.2.2,MacIntel,59.88023952,,,,,,,,,,,,,,,,,,,,,,,,570.1665,571.2644,l,1,[],[],[],[],[],[],[],0.4246,1,571.2646,571.7641,,,,,,316,MAS,AGR,150,cuerpo,el,l,0.4246,,571.7641,571.7643,0.131380208,-0.262427662,0,0,0,,0,247,247,315,1,,,,
,,,,,,dbf5ef88df93039e1e63c92b,66a626ef09d4e21e1a8894ec,6734b0f433f28e2146fb81e6,2024-11-13_08h06.39.232,Tarea de género gramatical,2024.2.2,MacIntel,59.88023952,,,,,,,,,,,,,,,,,,,,,,,,571.7652,572.8143,l,1,[],[],[],[],[],[],[],0.3778,1,572.8145,573.3146,,,,,,136,MAS,AGR,150,vago,el,l,0.3778,,573.3147,573.3149,0.131380208,-0.262427662,0,0,0,,0,248,248,135,1,,,,
