counterbalancing_condition,consent_prescreening.block_1/age_years,consent_prescreening.block_1/gender,consent_prescreening.block_1/language_disorder,consent_prescreening.block_1/first_language,consent_prescreening.block_1/declare_consent,PROLIFIC_PID,STUDY_ID,SESSION_ID,date,expName,psychopyVersion,OS,frameRate,check_prescreening_answers.started,check_prescreening_answers.stopped,Instructions.started,Instructions.stopped,instr_done_keyboard.keys,instr_done_keyboard.rt,instr_done_keyboard.duration,instr_done_touch.x,instr_done_touch.y,instr_done_touch.leftButton,instr_done_touch.midButton,instr_done_touch.rightButton,instruction_pages.thisRepN,instruction_pages.thisTrialN,instruction_pages.thisN,instruction_pages.thisIndex,instruction_pages.ran,pageN,phase,instruct_text,has_image,instruct_image,presentTrial.started,presentTrial.stopped,response.keys,response.corr,touch_resp.x,touch_resp.y,touch_resp.leftButton,touch_resp.midButton,touch_resp.rightButton,touch_resp.time,touch_resp.clicked_name,rt,corr,feedback.started,feedback.stopped,practice_trials.thisRepN,practice_trials.thisTrialN,practice_trials.thisN,practice_trials.thisIndex,practice_trials.ran,TrialID,StimulusType,Condition,PrimeDuration,Prime,Flanker,corrAns,response.rt,response.duration,Break.started,Break.stopped,break_done_touch.x,break_done_touch.y,break_done_touch.leftButton,break_done_touch.midButton,break_done_touch.rightButton,break_done_keyboard.keys,experiment_trials.thisRepN,experiment_trials.thisTrialN,experiment_trials.thisN,experiment_trials.thisIndex,experiment_trials.ran,break_done_keyboard.rt,break_done_keyboard.duration,End.started,End.stopped
2,47,M,"[""none""]","[""spanish""]","[""comfortable"",""over_18"",""read_info"",""consent_given""]",de4ce9491dc5aec2966d826b,66a626ef09d4e21e1a8894ec,6734e028ff74881fa9af6ca2,2024-11-13_18h22.28.850,Tarea de género gramatical,2024.2.2,Win32,59.88023952,,,,,,,,,,,,,,,,,,,,,,,,,,,,,,,,,,,,,,,,,,,,,,,,,,,,,,,,,,,,,,,,,,,,
,,,,,,de4ce9491dc5aec2966d826b,66a626ef09d4e21e1a8894ec,6734e028ff74881fa9af6ca2,2024-11-13_18h22.28.850,Tarea de género gramatical,2024.2.2,Win32,59.88023952,31.4982,31.4984,,,,,,,,,,,,,,,,,,,,,,,,,,,,,,,,,,,,,,,,,,,,,,,,,,,,,,,,,,,,,,,,,,
,,,,,,de4ce9491dc5aec2966d826b,66a626ef09d4e21e1a8894ec,6734e028ff74881fa9af6ca2,2024-11-13_18h22.28.850,Tarea de género gramatical,2024.2.2,Win32,59.88023952,,,31.5223,43.7649,space,12.2094,,0.171428571,0.056190476,0,0,0,0,0,0,0,1,1,instructions,"INSTRUCCIONES
Va a realizar una prueba de selección gramatical. Desde el comienzo de la prueba mire siempre al centro de la pantalla. Al cabo de un momento, aparecerán palabras. La tarea consiste en determinar si la palabra del centro (siempre será un sustantivo), pertenece al género masculino o femenino.

Pulse la tecla ESPACIO o toque el botón de abajo para continuar.",0,keyboardresponseFM.png,,,,,,,,,,,,,,,,,,,,,,,,,,,,,,,,,,,,,,,,,,,,,,
,,,,,,de4ce9491dc5aec2966d826b,66a626ef09d4e21e1a8894ec,6734e028ff74881fa9af6ca2,2024-11-13_18h22.28.850,Tarea de género gramatical,2024.2.2,Win32,59.88023952,,,43.7676,50.9952,space,7.1775,,0.177142857,0.055238095,0,0,0,0,1,1,1,1,2,instructions,"Si su dispositivo tiene teclado, pulse la tecla ""A"" para las palabras en femenino (por ejemplo: ""mano"") y la tecla ""L"" para las palabras en masculino(por ejemplo: ""arroz"").
Pulse la tecla ESPACIO o toque el botón de abajo para continuar.",1,keyboardresponseFM.png,,,,,,,,,,,,,,,,,,,,,,,,,,,,,,,,,,,,,,,,,,,,,,
,,,,,,de4ce9491dc5aec2966d826b,66a626ef09d4e21e1a8894ec,6734e028ff74881fa9af6ca2,2024-11-13_18h22.28.850,Tarea de género gramatical,2024.2.2,Win32,59.88023952,,,50.997,55.5454,space,4.5,,0.177142857,0.055238095,0,0,0,0,2,2,2,1,3,instructions,"Si utiliza un dispositivo sólo táctil, colóquelo en horizontal y utilice los botones de la pantalla. No utilice el ratón.
Pulse la tecla ESPACIO o toque el botón de abajo para continuar.",2,touchresponseFM.png,,,,,,,,,,,,,,,,,,,,,,,,,,,,,,,,,,,,,,,,,,,,,,
,,,,,,de4ce9491dc5aec2966d826b,66a626ef09d4e21e1a8894ec,6734e028ff74881fa9af6ca2,2024-11-13_18h22.28.850,Tarea de género gramatical,2024.2.2,Win32,59.88023952,,,55.548,60.1881,space,4.621,,0.177142857,0.055238095,0,0,0,0,3,3,3,1,4,instructions,"Es muy importante que responda con la mayor rapidez y precisión posibles, ya que cada cadena de letras sólo estará en pantalla durante un instante. Si no responde en ese tiempo, aparecerá el mensaje ""Muy lento"" y el experimento pasará a la siguiente palabra. Los primeros 15 intentos serán de práctica y habrá dos descansos durante la prueba.
Pulse la tecla ESPACIO o toque el botón de abajo para iniciar la parte de práctica.",0,keyboardresponseFM.png,,,,,,,,,,,,,,,,,,,,,,,,,,,,,,,,,,,,,,,,,,,,,,
,,,,,,de4ce9491dc5aec2966d826b,66a626ef09d4e21e1a8894ec,6734e028ff74881fa9af6ca2,2024-11-13_18h22.28.850,Tarea de género gramatical,2024.2.2,Win32,59.88023952,,,,,,,,,,,,,,,,,,,,,,,60.2146,62.8683,,0,[],[],[],[],[],[],[],,-1,62.8686,63.3691,0,0,0,11,1,2012,MAS,DIS,150,clima,la,l,,,,,,,,,,,,,,,,,,,
,,,,,,de4ce9491dc5aec2966d826b,66a626ef09d4e21e1a8894ec,6734e028ff74881fa9af6ca2,2024-11-13_18h22.28.850,Tarea de género gramatical,2024.2.2,Win32,59.88023952,,,,,,,,,,,,,,,,,,,,,,,63.3707,64.9226,l,1,[],[],[],[],[],[],[],0.8857,1,64.9294,65.423,0,1,1,9,1,2010,MAS,AGR,150,vecino,el,l,0.8857,,,,,,,,,,,,,,,,,,
,,,,,,de4ce9491dc5aec2966d826b,66a626ef09d4e21e1a8894ec,6734e028ff74881fa9af6ca2,2024-11-13_18h22.28.850,Tarea de género gramatical,2024.2.2,Win32,59.88023952,,,,,,,,,,,,,,,,,,,,,,,65.4247,66.6591,l,1,[],[],[],[],[],[],[],0.5681,1,66.6592,67.1599,0,2,2,14,1,2015,MAS,DIS,150,robot,la,l,0.5681,,,,,,,,,,,,,,,,,,
,,,,,,de4ce9491dc5aec2966d826b,66a626ef09d4e21e1a8894ec,6734e028ff74881fa9af6ca2,2024-11-13_18h22.28.850,Tarea de género gramatical,2024.2.2,Win32,59.88023952,,,,,,,,,,,,,,,,,,,,,,,67.1611,68.396,a,1,[],[],[],[],[],[],[],0.5682,1,68.3961,68.8966,0,3,3,1,1,2002,FEM,CON,150,pala,,a,0.5682,,,,,,,,,,,,,,,,,,
,,,,,,de4ce9491dc5aec2966d826b,66a626ef09d4e21e1a8894ec,6734e028ff74881fa9af6ca2,2024-11-13_18h22.28.850,Tarea de género gramatical,2024.2.2,Win32,59.88023952,,,,,,,,,,,,,,,,,,,,,,,68.8976,70.3665,a,1,[],[],[],[],[],[],[],0.802,1,70.3666,70.8674,0,4,4,3,1,2004,FEM,AGR,150,venta,la,a,0.802,,,,,,,,,,,,,,,,,,
,,,,,,de4ce9491dc5aec2966d826b,66a626ef09d4e21e1a8894ec,6734e028ff74881fa9af6ca2,2024-11-13_18h22.28.850,Tarea de género gramatical,2024.2.2,Win32,59.88023952,,,,,,,,,,,,,,,,,,,,,,,70.8689,72.0699,l,0,[],[],[],[],[],[],[],0.5349,0,72.0708,72.5706,0,5,5,2,1,2003,FEM,DIS,150,daga,el,a,0.5349,,,,,,,,,,,,,,,,,,
,,,,,,de4ce9491dc5aec2966d826b,66a626ef09d4e21e1a8894ec,6734e028ff74881fa9af6ca2,2024-11-13_18h22.28.850,Tarea de género gramatical,2024.2.2,Win32,59.88023952,,,,,,,,,,,,,,,,,,,,,,,72.5718,73.9069,a,1,[],[],[],[],[],[],[],0.6684,1,73.9077,74.4076,0,6,6,7,1,2008,FEM,CON,150,siesta,,a,0.6684,,,,,,,,,,,,,,,,,,
,,,,,,de4ce9491dc5aec2966d826b,66a626ef09d4e21e1a8894ec,6734e028ff74881fa9af6ca2,2024-11-13_18h22.28.850,Tarea de género gramatical,2024.2.2,Win32,59.88023952,,,,,,,,,,,,,,,,,,,,,,,74.4085,75.7438,l,1,[],[],[],[],[],[],[],0.6685,1,75.7439,76.2446,0,7,7,13,1,2014,MAS,CON,150,siglo,,l,0.6685,,,,,,,,,,,,,,,,,,
,,,,,,de4ce9491dc5aec2966d826b,66a626ef09d4e21e1a8894ec,6734e028ff74881fa9af6ca2,2024-11-13_18h22.28.850,Tarea de género gramatical,2024.2.2,Win32,59.88023952,,,,,,,,,,,,,,,,,,,,,,,76.2456,77.5641,a,1,[],[],[],[],[],[],[],0.6518,1,77.5643,78.0649,0,8,8,0,1,2001,FEM,AGR,150,nuca,la,a,0.6518,,,,,,,,,,,,,,,,,,
,,,,,,de4ce9491dc5aec2966d826b,66a626ef09d4e21e1a8894ec,6734e028ff74881fa9af6ca2,2024-11-13_18h22.28.850,Tarea de género gramatical,2024.2.2,Win32,59.88023952,,,,,,,,,,,,,,,,,,,,,,,78.0658,79.4012,l,0,[],[],[],[],[],[],[],0.6687,0,79.402,79.9017,0,9,9,5,1,2006,FEM,DIS,150,serie,el,a,0.6687,,,,,,,,,,,,,,,,,,
,,,,,,de4ce9491dc5aec2966d826b,66a626ef09d4e21e1a8894ec,6734e028ff74881fa9af6ca2,2024-11-13_18h22.28.850,Tarea de género gramatical,2024.2.2,Win32,59.88023952,,,,,,,,,,,,,,,,,,,,,,,79.9027,81.4218,l,1,[],[],[],[],[],[],[],0.8523,1,81.4225,81.9224,0,10,10,8,1,2009,MAS,DIS,150,puerto,la,l,0.8523,,,,,,,,,,,,,,,,,,
,,,,,,de4ce9491dc5aec2966d826b,66a626ef09d4e21e1a8894ec,6734e028ff74881fa9af6ca2,2024-11-13_18h22.28.850,Tarea de género gramatical,2024.2.2,Win32,59.88023952,,,,,,,,,,,,,,,,,,,,,,,81.9234,83.693,a,1,[],[],[],[],[],[],[],1.1027,1,83.6932,84.1936,0,11,11,4,1,2005,FEM,CON,150,placa,,a,1.1027,,,,,,,,,,,,,,,,,,
,,,,,,de4ce9491dc5aec2966d826b,66a626ef09d4e21e1a8894ec,6734e028ff74881fa9af6ca2,2024-11-13_18h22.28.850,Tarea de género gramatical,2024.2.2,Win32,59.88023952,,,,,,,,,,,,,,,,,,,,,,,84.1945,85.7138,l,1,[],[],[],[],[],[],[],0.8523,1,85.7139,86.2146,0,12,12,10,1,2011,MAS,CON,150,canal,,l,0.8523,,,,,,,,,,,,,,,,,,
,,,,,,de4ce9491dc5aec2966d826b,66a626ef09d4e21e1a8894ec,6734e028ff74881fa9af6ca2,2024-11-13_18h22.28.850,Tarea de género gramatical,2024.2.2,Win32,59.88023952,,,,,,,,,,,,,,,,,,,,,,,86.2157,87.517,a,1,[],[],[],[],[],[],[],0.6351,1,87.5171,88.018,0,13,13,6,1,2007,FEM,AGR,150,navaja,la,a,0.6351,,,,,,,,,,,,,,,,,,
,,,,,,de4ce9491dc5aec2966d826b,66a626ef09d4e21e1a8894ec,6734e028ff74881fa9af6ca2,2024-11-13_18h22.28.850,Tarea de género gramatical,2024.2.2,Win32,59.88023952,,,,,,,,,,,,,,,,,,,,,,,88.0189,89.2539,l,1,[],[],[],[],[],[],[],0.5683,1,89.254,89.7545,0,14,14,12,1,2013,MAS,AGR,150,acero,el,l,0.5683,,,,,,,,,,,,,,,,,,
,,,,,,de4ce9491dc5aec2966d826b,66a626ef09d4e21e1a8894ec,6734e028ff74881fa9af6ca2,2024-11-13_18h22.28.850,Tarea de género gramatical,2024.2.2,Win32,59.88023952,,,91.8449,93.2033,space,1.3406,,0.177142857,0.055238095,0,0,0,,,,,,,,,,,93.3236,94.6227,l,1,[],[],[],[],[],[],[],0.6231,1,94.6228,95.1237,,,,,,1325,MAS,AGR,150,chiste,el,l,0.6231,,95.124,95.1277,0.177142857,0.055238095,0,0,0,,0,0,0,424,1,,,,
,,,,,,de4ce9491dc5aec2966d826b,66a626ef09d4e21e1a8894ec,6734e028ff74881fa9af6ca2,2024-11-13_18h22.28.850,Tarea de género gramatical,2024.2.2,Win32,59.88023952,,,,,,,,,,,,,,,,,,,,,,,95.1286,96.2928,l,1,[],[],[],[],[],[],[],0.4917,1,96.293,96.7938,,,,,,995,MAS,AGR,150,tomo,el,l,0.4917,,96.7939,96.7941,0.177142857,0.055238095,0,0,0,,0,1,1,94,1,,,,
,,,,,,de4ce9491dc5aec2966d826b,66a626ef09d4e21e1a8894ec,6734e028ff74881fa9af6ca2,2024-11-13_18h22.28.850,Tarea de género gramatical,2024.2.2,Win32,59.88023952,,,,,,,,,,,,,,,,,,,,,,,96.7949,97.9962,l,1,[],[],[],[],[],[],[],0.5348,1,97.9963,98.4972,,,,,,1036,MAS,DIS,150,vago,la,l,0.5348,,98.4983,98.4989,0.177142857,0.055238095,0,0,0,,0,2,2,135,1,,,,
,,,,,,de4ce9491dc5aec2966d826b,66a626ef09d4e21e1a8894ec,6734e028ff74881fa9af6ca2,2024-11-13_18h22.28.850,Tarea de género gramatical,2024.2.2,Win32,59.88023952,,,,,,,,,,,,,,,,,,,,,,,98.4995,99.616,l,1,[],[],[],[],[],[],[],0.4352,1,99.6161,100.117,,,,,,1007,MAS,AGR,150,cubo,el,l,0.4352,,100.1171,100.1173,0.177142857,0.055238095,0,0,0,,0,3,3,106,1,,,,
,,,,,,de4ce9491dc5aec2966d826b,66a626ef09d4e21e1a8894ec,6734e028ff74881fa9af6ca2,2024-11-13_18h22.28.850,Tarea de género gramatical,2024.2.2,Win32,59.88023952,,,,,,,,,,,,,,,,,,,,,,,100.1181,101.1189,a,1,[],[],[],[],[],[],[],0.3343,1,101.1191,101.6199,,,,,,1064,FEM,AGR,150,novia,la,a,0.3343,,101.62,101.6201,0.177142857,0.055238095,0,0,0,,0,4,4,163,1,,,,
,,,,,,de4ce9491dc5aec2966d826b,66a626ef09d4e21e1a8894ec,6734e028ff74881fa9af6ca2,2024-11-13_18h22.28.850,Tarea de género gramatical,2024.2.2,Win32,59.88023952,,,,,,,,,,,,,,,,,,,,,,,101.6213,102.7724,a,1,[],[],[],[],[],[],[],0.4883,1,102.7725,103.2732,,,,,,1231,FEM,DIS,150,cárcel,el,a,0.4883,,103.2733,103.2734,0.177142857,0.055238095,0,0,0,,0,5,5,330,1,,,,
,,,,,,de4ce9491dc5aec2966d826b,66a626ef09d4e21e1a8894ec,6734e028ff74881fa9af6ca2,2024-11-13_18h22.28.850,Tarea de género gramatical,2024.2.2,Win32,59.88023952,,,,,,,,,,,,,,,,,,,,,,,103.2742,104.4423,l,1,[],[],[],[],[],[],[],0.5014,1,104.4424,104.9433,,,,,,1066,MAS,DIS,150,coche,la,l,0.5014,,104.9445,104.9452,0.177142857,0.055238095,0,0,0,,0,6,6,165,1,,,,
,,,,,,de4ce9491dc5aec2966d826b,66a626ef09d4e21e1a8894ec,6734e028ff74881fa9af6ca2,2024-11-13_18h22.28.850,Tarea de género gramatical,2024.2.2,Win32,59.88023952,,,,,,,,,,,,,,,,,,,,,,,104.9459,106.1456,l,1,[],[],[],[],[],[],[],0.5183,1,106.1457,106.6466,,,,,,1290,MAS,CON,150,rostro,,l,0.5183,,106.6468,106.6469,0.177142857,0.055238095,0,0,0,,0,7,7,389,1,,,,
,,,,,,de4ce9491dc5aec2966d826b,66a626ef09d4e21e1a8894ec,6734e028ff74881fa9af6ca2,2024-11-13_18h22.28.850,Tarea de género gramatical,2024.2.2,Win32,59.88023952,,,,,,,,,,,,,,,,,,,,,,,106.6478,107.7488,a,1,[],[],[],[],[],[],[],0.435,1,107.749,108.2498,,,,,,1322,FEM,AGR,150,rutina,la,a,0.435,,108.2499,108.25,0.177142857,0.055238095,0,0,0,,0,8,8,421,1,,,,
,,,,,,de4ce9491dc5aec2966d826b,66a626ef09d4e21e1a8894ec,6734e028ff74881fa9af6ca2,2024-11-13_18h22.28.850,Tarea de género gramatical,2024.2.2,Win32,59.88023952,,,,,,,,,,,,,,,,,,,,,,,108.2509,109.4353,a,1,[],[],[],[],[],[],[],0.5181,1,109.4355,109.9365,,,,,,1339,FEM,DIS,150,toalla,el,a,0.5181,,109.9365,109.9367,0.177142857,0.055238095,0,0,0,,0,9,9,438,1,,,,
,,,,,,de4ce9491dc5aec2966d826b,66a626ef09d4e21e1a8894ec,6734e028ff74881fa9af6ca2,2024-11-13_18h22.28.850,Tarea de género gramatical,2024.2.2,Win32,59.88023952,,,,,,,,,,,,,,,,,,,,,,,109.9375,111.0387,l,1,[],[],[],[],[],[],[],0.4416,1,111.0388,111.5395,,,,,,1158,MAS,CON,150,polvo,,l,0.4416,,111.5395,111.5398,0.177142857,0.055238095,0,0,0,,0,10,10,257,1,,,,
,,,,,,de4ce9491dc5aec2966d826b,66a626ef09d4e21e1a8894ec,6734e028ff74881fa9af6ca2,2024-11-13_18h22.28.850,Tarea de género gramatical,2024.2.2,Win32,59.88023952,,,,,,,,,,,,,,,,,,,,,,,111.5408,112.7085,a,1,[],[],[],[],[],[],[],0.4982,1,112.7086,113.2096,,,,,,1293,FEM,CON,150,alarma,,a,0.4982,,113.2108,113.2115,0.177142857,0.055238095,0,0,0,,0,11,11,392,1,,,,
,,,,,,de4ce9491dc5aec2966d826b,66a626ef09d4e21e1a8894ec,6734e028ff74881fa9af6ca2,2024-11-13_18h22.28.850,Tarea de género gramatical,2024.2.2,Win32,59.88023952,,,,,,,,,,,,,,,,,,,,,,,113.2122,114.4454,l,1,[],[],[],[],[],[],[],0.5575,1,114.4455,114.9462,,,,,,1156,MAS,DIS,150,techo,la,l,0.5575,,114.9463,114.9464,0.177142857,0.055238095,0,0,0,,0,12,12,255,1,,,,
,,,,,,de4ce9491dc5aec2966d826b,66a626ef09d4e21e1a8894ec,6734e028ff74881fa9af6ca2,2024-11-13_18h22.28.850,Tarea de género gramatical,2024.2.2,Win32,59.88023952,,,,,,,,,,,,,,,,,,,,,,,114.9473,116.0487,l,1,[],[],[],[],[],[],[],0.4374,1,116.0488,116.5496,,,,,,1139,MAS,AGR,150,reloj,el,l,0.4374,,116.5497,116.5498,0.177142857,0.055238095,0,0,0,,0,13,13,238,1,,,,
,,,,,,de4ce9491dc5aec2966d826b,66a626ef09d4e21e1a8894ec,6734e028ff74881fa9af6ca2,2024-11-13_18h22.28.850,Tarea de género gramatical,2024.2.2,Win32,59.88023952,,,,,,,,,,,,,,,,,,,,,,,116.5507,117.7185,l,1,[],[],[],[],[],[],[],0.5062,1,117.7187,118.2194,,,,,,947,MAS,AGR,150,olor,el,l,0.5062,,118.2195,118.2196,0.177142857,0.055238095,0,0,0,,0,14,14,46,1,,,,
,,,,,,de4ce9491dc5aec2966d826b,66a626ef09d4e21e1a8894ec,6734e028ff74881fa9af6ca2,2024-11-13_18h22.28.850,Tarea de género gramatical,2024.2.2,Win32,59.88023952,,,,,,,,,,,,,,,,,,,,,,,118.2205,119.3385,a,1,[],[],[],[],[],[],[],0.4524,1,119.3386,119.8394,,,,,,1215,FEM,CON,150,manera,,a,0.4524,,119.8407,119.8413,0.177142857,0.055238095,0,0,0,,0,15,15,314,1,,,,
,,,,,,de4ce9491dc5aec2966d826b,66a626ef09d4e21e1a8894ec,6734e028ff74881fa9af6ca2,2024-11-13_18h22.28.850,Tarea de género gramatical,2024.2.2,Win32,59.88023952,,,,,,,,,,,,,,,,,,,,,,,119.8419,121.0252,l,1,[],[],[],[],[],[],[],0.5016,1,121.0253,121.5262,,,,,,1152,MAS,CON,150,viejo,,l,0.5016,,121.5263,121.5264,0.177142857,0.055238095,0,0,0,,0,16,16,251,1,,,,
,,,,,,de4ce9491dc5aec2966d826b,66a626ef09d4e21e1a8894ec,6734e028ff74881fa9af6ca2,2024-11-13_18h22.28.850,Tarea de género gramatical,2024.2.2,Win32,59.88023952,,,,,,,,,,,,,,,,,,,,,,,121.5276,122.645,l,1,[],[],[],[],[],[],[],0.4527,1,122.6452,123.146,,,,,,978,MAS,CON,150,oído,,l,0.4527,,123.146,123.1462,0.177142857,0.055238095,0,0,0,,0,17,17,77,1,,,,
,,,,,,de4ce9491dc5aec2966d826b,66a626ef09d4e21e1a8894ec,6734e028ff74881fa9af6ca2,2024-11-13_18h22.28.850,Tarea de género gramatical,2024.2.2,Win32,59.88023952,,,,,,,,,,,,,,,,,,,,,,,123.1471,124.3818,l,1,[],[],[],[],[],[],[],0.5739,1,124.3819,124.8827,,,,,,1252,MAS,DIS,150,estilo,la,l,0.5739,,124.8828,124.8829,0.177142857,0.055238095,0,0,0,,0,18,18,351,1,,,,
,,,,,,de4ce9491dc5aec2966d826b,66a626ef09d4e21e1a8894ec,6734e028ff74881fa9af6ca2,2024-11-13_18h22.28.850,Tarea de género gramatical,2024.2.2,Win32,59.88023952,,,,,,,,,,,,,,,,,,,,,,,124.8839,126.0182,l,1,[],[],[],[],[],[],[],0.4691,1,126.0184,126.5193,,,,,,970,MAS,DIS,150,palo,la,l,0.4691,,126.5193,126.5194,0.177142857,0.055238095,0,0,0,,0,19,19,69,1,,,,
,,,,,,de4ce9491dc5aec2966d826b,66a626ef09d4e21e1a8894ec,6734e028ff74881fa9af6ca2,2024-11-13_18h22.28.850,Tarea de género gramatical,2024.2.2,Win32,59.88023952,,,,,,,,,,,,,,,,,,,,,,,126.5203,127.6716,a,1,[],[],[],[],[],[],[],0.4851,1,127.6717,128.1725,,,,,,1173,FEM,CON,150,tarta,,a,0.4851,,128.1737,128.1743,0.177142857,0.055238095,0,0,0,,0,20,20,272,1,,,,
,,,,,,de4ce9491dc5aec2966d826b,66a626ef09d4e21e1a8894ec,6734e028ff74881fa9af6ca2,2024-11-13_18h22.28.850,Tarea de género gramatical,2024.2.2,Win32,59.88023952,,,,,,,,,,,,,,,,,,,,,,,128.1749,129.3582,l,1,[],[],[],[],[],[],[],0.5013,1,129.3583,129.8591,,,,,,952,MAS,DIS,150,lago,la,l,0.5013,,129.8592,129.8594,0.177142857,0.055238095,0,0,0,,0,21,21,51,1,,,,
,,,,,,de4ce9491dc5aec2966d826b,66a626ef09d4e21e1a8894ec,6734e028ff74881fa9af6ca2,2024-11-13_18h22.28.850,Tarea de género gramatical,2024.2.2,Win32,59.88023952,,,,,,,,,,,,,,,,,,,,,,,129.8604,130.9614,l,1,[],[],[],[],[],[],[],0.4345,1,130.9616,131.4625,,,,,,1176,MAS,CON,150,ritmo,,l,0.4345,,131.4626,131.4627,0.177142857,0.055238095,0,0,0,,0,22,22,275,1,,,,
,,,,,,de4ce9491dc5aec2966d826b,66a626ef09d4e21e1a8894ec,6734e028ff74881fa9af6ca2,2024-11-13_18h22.28.850,Tarea de género gramatical,2024.2.2,Win32,59.88023952,,,,,,,,,,,,,,,,,,,,,,,131.4636,132.5479,a,1,[],[],[],[],[],[],[],0.418,1,132.5481,133.0489,,,,,,1245,FEM,CON,150,pierna,,a,0.418,,133.0491,133.0492,0.177142857,0.055238095,0,0,0,,0,23,23,344,1,,,,
,,,,,,de4ce9491dc5aec2966d826b,66a626ef09d4e21e1a8894ec,6734e028ff74881fa9af6ca2,2024-11-13_18h22.28.850,Tarea de género gramatical,2024.2.2,Win32,59.88023952,,,,,,,,,,,,,,,,,,,,,,,133.0501,134.1177,a,1,[],[],[],[],[],[],[],0.4016,1,134.1178,134.6186,,,,,,1195,FEM,DIS,150,grasa,el,a,0.4016,,134.6198,134.6205,0.177142857,0.055238095,0,0,0,,0,24,24,294,1,,,,
,,,,,,de4ce9491dc5aec2966d826b,66a626ef09d4e21e1a8894ec,6734e028ff74881fa9af6ca2,2024-11-13_18h22.28.850,Tarea de género gramatical,2024.2.2,Win32,59.88023952,,,,,,,,,,,,,,,,,,,,,,,134.6214,135.7542,a,1,[],[],[],[],[],[],[],0.4512,1,135.7542,136.2552,,,,,,1261,FEM,DIS,150,oferta,el,a,0.4512,,136.2552,136.2554,0.177142857,0.055238095,0,0,0,,0,25,25,360,1,,,,
,,,,,,de4ce9491dc5aec2966d826b,66a626ef09d4e21e1a8894ec,6734e028ff74881fa9af6ca2,2024-11-13_18h22.28.850,Tarea de género gramatical,2024.2.2,Win32,59.88023952,,,,,,,,,,,,,,,,,,,,,,,136.2563,137.3072,l,1,[],[],[],[],[],[],[],0.3849,1,137.3074,137.8084,,,,,,1271,MAS,AGR,150,sonido,el,l,0.3849,,137.8085,137.8086,0.177142857,0.055238095,0,0,0,,0,26,26,370,1,,,,
,,,,,,de4ce9491dc5aec2966d826b,66a626ef09d4e21e1a8894ec,6734e028ff74881fa9af6ca2,2024-11-13_18h22.28.850,Tarea de género gramatical,2024.2.2,Win32,59.88023952,,,,,,,,,,,,,,,,,,,,,,,137.8095,138.827,l,1,[],[],[],[],[],[],[],0.3513,1,138.8272,139.3281,,,,,,922,MAS,DIS,150,pelo,la,l,0.3513,,139.3282,139.3282,0.177142857,0.055238095,0,0,0,,0,27,27,21,1,,,,
,,,,,,de4ce9491dc5aec2966d826b,66a626ef09d4e21e1a8894ec,6734e028ff74881fa9af6ca2,2024-11-13_18h22.28.850,Tarea de género gramatical,2024.2.2,Win32,59.88023952,,,,,,,,,,,,,,,,,,,,,,,139.3295,140.3301,a,1,[],[],[],[],[],[],[],0.3359,1,140.3302,140.8311,,,,,,1099,FEM,DIS,150,nariz,el,a,0.3359,,140.8311,140.8312,0.177142857,0.055238095,0,0,0,,0,28,28,198,1,,,,
,,,,,,de4ce9491dc5aec2966d826b,66a626ef09d4e21e1a8894ec,6734e028ff74881fa9af6ca2,2024-11-13_18h22.28.850,Tarea de género gramatical,2024.2.2,Win32,59.88023952,,,,,,,,,,,,,,,,,,,,,,,140.8321,141.8496,a,1,[],[],[],[],[],[],[],0.3527,1,141.8497,142.3506,,,,,,1059,FEM,CON,150,clase,,a,0.3527,,142.3518,142.3527,0.177142857,0.055238095,0,0,0,,0,29,29,158,1,,,,
,,,,,,de4ce9491dc5aec2966d826b,66a626ef09d4e21e1a8894ec,6734e028ff74881fa9af6ca2,2024-11-13_18h22.28.850,Tarea de género gramatical,2024.2.2,Win32,59.88023952,,,,,,,,,,,,,,,,,,,,,,,142.3535,143.3861,a,1,[],[],[],[],[],[],[],0.3509,1,143.3862,143.8869,,,,,,915,FEM,CON,150,cama,,a,0.3509,,143.8871,143.8872,0.177142857,0.055238095,0,0,0,,0,30,30,14,1,,,,
,,,,,,de4ce9491dc5aec2966d826b,66a626ef09d4e21e1a8894ec,6734e028ff74881fa9af6ca2,2024-11-13_18h22.28.850,Tarea de género gramatical,2024.2.2,Win32,59.88023952,,,,,,,,,,,,,,,,,,,,,,,143.888,144.8724,l,1,[],[],[],[],[],[],[],0.3176,1,144.8725,145.3732,,,,,,1343,MAS,AGR,150,templo,el,l,0.3176,,145.3733,145.3735,0.177142857,0.055238095,0,0,0,,0,31,31,442,1,,,,
,,,,,,de4ce9491dc5aec2966d826b,66a626ef09d4e21e1a8894ec,6734e028ff74881fa9af6ca2,2024-11-13_18h22.28.850,Tarea de género gramatical,2024.2.2,Win32,59.88023952,,,,,,,,,,,,,,,,,,,,,,,145.3743,146.3253,a,1,[],[],[],[],[],[],[],0.2843,1,146.3254,146.8262,,,,,,1323,FEM,CON,150,poesía,,a,0.2843,,146.8262,146.8265,0.177142857,0.055238095,0,0,0,,0,32,32,422,1,,,,
,,,,,,de4ce9491dc5aec2966d826b,66a626ef09d4e21e1a8894ec,6734e028ff74881fa9af6ca2,2024-11-13_18h22.28.850,Tarea de género gramatical,2024.2.2,Win32,59.88023952,,,,,,,,,,,,,,,,,,,,,,,146.8273,147.828,a,1,[],[],[],[],[],[],[],0.3344,1,147.8282,148.3291,,,,,,1327,FEM,DIS,150,agenda,el,a,0.3344,,148.3303,148.3309,0.177142857,0.055238095,0,0,0,,0,33,33,426,1,,,,
,,,,,,de4ce9491dc5aec2966d826b,66a626ef09d4e21e1a8894ec,6734e028ff74881fa9af6ca2,2024-11-13_18h22.28.850,Tarea de género gramatical,2024.2.2,Win32,59.88023952,,,,,,,,,,,,,,,,,,,,,,,148.3316,149.3145,a,1,[],[],[],[],[],[],[],0.3011,1,149.3146,149.8155,,,,,,925,FEM,DIS,150,nave,el,a,0.3011,,149.8155,149.8157,0.177142857,0.055238095,0,0,0,,0,34,34,24,1,,,,
,,,,,,de4ce9491dc5aec2966d826b,66a626ef09d4e21e1a8894ec,6734e028ff74881fa9af6ca2,2024-11-13_18h22.28.850,Tarea de género gramatical,2024.2.2,Win32,59.88023952,,,,,,,,,,,,,,,,,,,,,,,149.8165,150.8841,a,1,[],[],[],[],[],[],[],0.4011,1,150.8842,151.3851,,,,,,955,FEM,DIS,150,taza,el,a,0.4011,,151.3852,151.3853,0.177142857,0.055238095,0,0,0,,0,35,35,54,1,,,,
,,,,,,de4ce9491dc5aec2966d826b,66a626ef09d4e21e1a8894ec,6734e028ff74881fa9af6ca2,2024-11-13_18h22.28.850,Tarea de género gramatical,2024.2.2,Win32,59.88023952,,,,,,,,,,,,,,,,,,,,,,,151.3862,152.3204,a,1,[],[],[],[],[],[],[],0.2705,1,152.3205,152.8214,,,,,,1189,FEM,DIS,150,tabla,el,a,0.2705,,152.8214,152.8215,0.177142857,0.055238095,0,0,0,,0,36,36,288,1,,,,
,,,,,,de4ce9491dc5aec2966d826b,66a626ef09d4e21e1a8894ec,6734e028ff74881fa9af6ca2,2024-11-13_18h22.28.850,Tarea de género gramatical,2024.2.2,Win32,59.88023952,,,,,,,,,,,,,,,,,,,,,,,152.8223,153.8403,a,1,[],[],[],[],[],[],[],0.3542,1,153.8403,154.3412,,,,,,1172,FEM,AGR,150,oreja,la,a,0.3542,,154.3413,154.3414,0.177142857,0.055238095,0,0,0,,0,37,37,271,1,,,,
,,,,,,de4ce9491dc5aec2966d826b,66a626ef09d4e21e1a8894ec,6734e028ff74881fa9af6ca2,2024-11-13_18h22.28.850,Tarea de género gramatical,2024.2.2,Win32,59.88023952,,,,,,,,,,,,,,,,,,,,,,,154.3422,155.3597,a,1,[],[],[],[],[],[],[],0.3515,1,155.3598,155.8607,,,,,,1143,FEM,CON,150,salsa,,a,0.3515,,155.8619,155.8626,0.177142857,0.055238095,0,0,0,,0,38,38,242,1,,,,
,,,,,,de4ce9491dc5aec2966d826b,66a626ef09d4e21e1a8894ec,6734e028ff74881fa9af6ca2,2024-11-13_18h22.28.850,Tarea de género gramatical,2024.2.2,Win32,59.88023952,,,,,,,,,,,,,,,,,,,,,,,155.8632,156.8628,l,1,[],[],[],[],[],[],[],0.3223,1,156.8629,157.3638,,,,,,1050,MAS,CON,150,mozo,,l,0.3223,,157.3638,157.364,0.177142857,0.055238095,0,0,0,,0,39,39,149,1,,,,
,,,,,,de4ce9491dc5aec2966d826b,66a626ef09d4e21e1a8894ec,6734e028ff74881fa9af6ca2,2024-11-13_18h22.28.850,Tarea de género gramatical,2024.2.2,Win32,59.88023952,,,,,,,,,,,,,,,,,,,,,,,157.365,158.3323,a,1,[],[],[],[],[],[],[],0.308,1,158.3324,158.8332,,,,,,1029,FEM,CON,150,rana,,a,0.308,,158.8334,158.8334,0.177142857,0.055238095,0,0,0,,0,40,40,128,1,,,,
,,,,,,de4ce9491dc5aec2966d826b,66a626ef09d4e21e1a8894ec,6734e028ff74881fa9af6ca2,2024-11-13_18h22.28.850,Tarea de género gramatical,2024.2.2,Win32,59.88023952,,,,,,,,,,,,,,,,,,,,,,,158.8344,159.8187,a,1,[],[],[],[],[],[],[],0.3177,1,159.8188,160.3197,,,,,,1237,FEM,DIS,150,escena,el,a,0.3177,,160.3199,160.3201,0.177142857,0.055238095,0,0,0,,0,41,41,336,1,,,,
,,,,,,de4ce9491dc5aec2966d826b,66a626ef09d4e21e1a8894ec,6734e028ff74881fa9af6ca2,2024-11-13_18h22.28.850,Tarea de género gramatical,2024.2.2,Win32,59.88023952,,,,,,,,,,,,,,,,,,,,,,,160.321,161.3049,l,1,[],[],[],[],[],[],[],0.3176,1,161.305,161.8059,,,,,,1318,MAS,DIS,150,pájaro,la,l,0.3176,,161.8071,161.8079,0.177142857,0.055238095,0,0,0,,0,42,42,417,1,,,,
,,,,,,de4ce9491dc5aec2966d826b,66a626ef09d4e21e1a8894ec,6734e028ff74881fa9af6ca2,2024-11-13_18h22.28.850,Tarea de género gramatical,2024.2.2,Win32,59.88023952,,,,,,,,,,,,,,,,,,,,,,,161.8085,162.9081,l,1,[],[],[],[],[],[],[],0.4179,1,162.9082,163.4091,,,,,,1313,MAS,AGR,150,diario,el,l,0.4179,,163.4092,163.4093,0.177142857,0.055238095,0,0,0,,0,43,43,412,1,,,,
,,,,,,de4ce9491dc5aec2966d826b,66a626ef09d4e21e1a8894ec,6734e028ff74881fa9af6ca2,2024-11-13_18h22.28.850,Tarea de género gramatical,2024.2.2,Win32,59.88023952,,,,,,,,,,,,,,,,,,,,,,,163.4102,164.3775,a,1,[],[],[],[],[],[],[],0.3024,1,164.3777,164.8787,,,,,,992,FEM,AGR,150,masa,la,a,0.3024,,164.8788,164.8789,0.177142857,0.055238095,0,0,0,,0,44,44,91,1,,,,
,,,,,,de4ce9491dc5aec2966d826b,66a626ef09d4e21e1a8894ec,6734e028ff74881fa9af6ca2,2024-11-13_18h22.28.850,Tarea de género gramatical,2024.2.2,Win32,59.88023952,,,,,,,,,,,,,,,,,,,,,,,164.8802,165.8807,l,1,[],[],[],[],[],[],[],0.3346,1,165.8807,166.3815,,,,,,965,MAS,AGR,150,rayo,el,l,0.3346,,166.3815,166.3817,0.177142857,0.055238095,0,0,0,,0,45,45,64,1,,,,
,,,,,,de4ce9491dc5aec2966d826b,66a626ef09d4e21e1a8894ec,6734e028ff74881fa9af6ca2,2024-11-13_18h22.28.850,Tarea de género gramatical,2024.2.2,Win32,59.88023952,,,,,,,,,,,,,,,,,,,,,,,166.3826,167.3501,a,1,[],[],[],[],[],[],[],0.301,1,167.3503,167.8512,,,,,,1023,FEM,CON,150,tela,,a,0.301,,167.8513,167.8514,0.177142857,0.055238095,0,0,0,,0,46,46,122,1,,,,
,,,,,,de4ce9491dc5aec2966d826b,66a626ef09d4e21e1a8894ec,6734e028ff74881fa9af6ca2,2024-11-13_18h22.28.850,Tarea de género gramatical,2024.2.2,Win32,59.88023952,,,,,,,,,,,,,,,,,,,,,,,167.8524,168.8867,l,1,[],[],[],[],[],[],[],0.3723,1,168.8869,169.3875,,,,,,1240,MAS,DIS,150,pasado,la,l,0.3723,,169.3887,169.3894,0.177142857,0.055238095,0,0,0,,0,47,47,339,1,,,,
,,,,,,de4ce9491dc5aec2966d826b,66a626ef09d4e21e1a8894ec,6734e028ff74881fa9af6ca2,2024-11-13_18h22.28.850,Tarea de género gramatical,2024.2.2,Win32,59.88023952,,,,,,,,,,,,,,,,,,,,,,,169.39,170.3394,a,1,[],[],[],[],[],[],[],0.2675,1,170.3396,170.8404,,,,,,1087,FEM,DIS,150,lista,el,a,0.2675,,170.8404,170.8406,0.177142857,0.055238095,0,0,0,,0,48,48,186,1,,,,
,,,,,,de4ce9491dc5aec2966d826b,66a626ef09d4e21e1a8894ec,6734e028ff74881fa9af6ca2,2024-11-13_18h22.28.850,Tarea de género gramatical,2024.2.2,Win32,59.88023952,,,,,,,,,,,,,,,,,,,,,,,170.8414,171.8427,a,1,[],[],[],[],[],[],[],0.335,1,171.8429,172.3435,,,,,,1273,FEM,DIS,150,lluvia,el,a,0.335,,172.3435,172.3436,0.177142857,0.055238095,0,0,0,,0,49,49,372,1,,,,
,,,,,,de4ce9491dc5aec2966d826b,66a626ef09d4e21e1a8894ec,6734e028ff74881fa9af6ca2,2024-11-13_18h22.28.850,Tarea de género gramatical,2024.2.2,Win32,59.88023952,,,,,,,,,,,,,,,,,,,,,,,172.3444,173.312,a,1,[],[],[],[],[],[],[],0.3008,1,173.3122,173.813,,,,,,1003,FEM,DIS,150,fama,el,a,0.3008,,173.813,173.8132,0.177142857,0.055238095,0,0,0,,0,50,50,102,1,,,,
,,,,,,de4ce9491dc5aec2966d826b,66a626ef09d4e21e1a8894ec,6734e028ff74881fa9af6ca2,2024-11-13_18h22.28.850,Tarea de género gramatical,2024.2.2,Win32,59.88023952,,,,,,,,,,,,,,,,,,,,,,,173.8142,174.8149,l,1,[],[],[],[],[],[],[],0.3345,1,174.815,175.3159,,,,,,990,MAS,CON,150,león,,l,0.3345,,175.3169,175.3176,0.177142857,0.055238095,0,0,0,,0,51,51,89,1,,,,
,,,,,,de4ce9491dc5aec2966d826b,66a626ef09d4e21e1a8894ec,6734e028ff74881fa9af6ca2,2024-11-13_18h22.28.850,Tarea de género gramatical,2024.2.2,Win32,59.88023952,,,,,,,,,,,,,,,,,,,,,,,175.3182,176.3179,l,0,[],[],[],[],[],[],[],0.3186,0,176.3188,176.8188,,,,,,1190,FEM,AGR,150,cabra,la,a,0.3186,,176.8189,176.819,0.177142857,0.055238095,0,0,0,,0,52,52,289,1,,,,
,,,,,,de4ce9491dc5aec2966d826b,66a626ef09d4e21e1a8894ec,6734e028ff74881fa9af6ca2,2024-11-13_18h22.28.850,Tarea de género gramatical,2024.2.2,Win32,59.88023952,,,,,,,,,,,,,,,,,,,,,,,176.8198,177.9211,a,1,[],[],[],[],[],[],[],0.4366,1,177.922,178.4221,,,,,,1101,FEM,CON,150,leche,,a,0.4366,,178.4223,178.4224,0.177142857,0.055238095,0,0,0,,0,53,53,200,1,,,,
,,,,,,de4ce9491dc5aec2966d826b,66a626ef09d4e21e1a8894ec,6734e028ff74881fa9af6ca2,2024-11-13_18h22.28.850,Tarea de género gramatical,2024.2.2,Win32,59.88023952,,,,,,,,,,,,,,,,,,,,,,,178.4234,179.4575,a,1,[],[],[],[],[],[],[],0.3679,1,179.4577,179.9584,,,,,,1191,FEM,CON,150,aguja,,a,0.3679,,179.9585,179.9586,0.177142857,0.055238095,0,0,0,,0,54,54,290,1,,,,
,,,,,,de4ce9491dc5aec2966d826b,66a626ef09d4e21e1a8894ec,6734e028ff74881fa9af6ca2,2024-11-13_18h22.28.850,Tarea de género gramatical,2024.2.2,Win32,59.88023952,,,,,,,,,,,,,,,,,,,,,,,179.9595,181.0273,l,1,[],[],[],[],[],[],[],0.4016,1,181.0274,181.5285,,,,,,917,MAS,AGR,150,modo,el,l,0.4016,,181.5286,181.5287,0.177142857,0.055238095,0,0,0,,0,55,55,16,1,,,,
,,,,,,de4ce9491dc5aec2966d826b,66a626ef09d4e21e1a8894ec,6734e028ff74881fa9af6ca2,2024-11-13_18h22.28.850,Tarea de género gramatical,2024.2.2,Win32,59.88023952,,,,,,,,,,,,,,,,,,,,,,,181.5297,182.6472,l,1,[],[],[],[],[],[],[],0.4554,1,182.6473,183.1482,,,,,,1000,MAS,DIS,150,nido,la,l,0.4554,,183.1492,183.1498,0.177142857,0.055238095,0,0,0,,0,56,56,99,1,,,,
,,,,,,de4ce9491dc5aec2966d826b,66a626ef09d4e21e1a8894ec,6734e028ff74881fa9af6ca2,2024-11-13_18h22.28.850,Tarea de género gramatical,2024.2.2,Win32,59.88023952,,,,,,,,,,,,,,,,,,,,,,,183.1504,184.1335,a,1,[],[],[],[],[],[],[],0.3065,1,184.1337,184.6344,,,,,,961,FEM,DIS,150,ruta,el,a,0.3065,,184.6345,184.6345,0.177142857,0.055238095,0,0,0,,0,57,57,60,1,,,,
,,,,,,de4ce9491dc5aec2966d826b,66a626ef09d4e21e1a8894ec,6734e028ff74881fa9af6ca2,2024-11-13_18h22.28.850,Tarea de género gramatical,2024.2.2,Win32,59.88023952,,,,,,,,,,,,,,,,,,,,,,,184.6355,185.7365,l,1,[],[],[],[],[],[],[],0.4349,1,185.7367,186.2375,,,,,,1012,MAS,DIS,150,reto,la,l,0.4349,,186.2376,186.2377,0.177142857,0.055238095,0,0,0,,0,58,58,111,1,,,,
,,,,,,de4ce9491dc5aec2966d826b,66a626ef09d4e21e1a8894ec,6734e028ff74881fa9af6ca2,2024-11-13_18h22.28.850,Tarea de género gramatical,2024.2.2,Win32,59.88023952,,,,,,,,,,,,,,,,,,,,,,,186.2385,187.2896,l,1,[],[],[],[],[],[],[],0.3878,1,187.2898,187.7906,,,,,,1254,MAS,CON,150,camión,,l,0.3878,,187.7906,187.7908,0.177142857,0.055238095,0,0,0,,0,59,59,353,1,,,,
,,,,,,de4ce9491dc5aec2966d826b,66a626ef09d4e21e1a8894ec,6734e028ff74881fa9af6ca2,2024-11-13_18h22.28.850,Tarea de género gramatical,2024.2.2,Win32,59.88023952,,,,,,,,,,,,,,,,,,,,,,,187.7917,188.8094,l,1,[],[],[],[],[],[],[],0.3512,1,188.8096,189.3105,,,,,,976,MAS,DIS,150,lujo,la,l,0.3512,,189.3115,189.3121,0.177142857,0.055238095,0,0,0,,0,60,60,75,1,,,,
,,,,,,de4ce9491dc5aec2966d826b,66a626ef09d4e21e1a8894ec,6734e028ff74881fa9af6ca2,2024-11-13_18h22.28.850,Tarea de género gramatical,2024.2.2,Win32,59.88023952,,,,,,,,,,,,,,,,,,,,,,,189.3127,190.3793,l,1,[],[],[],[],[],[],[],0.3848,1,190.3794,190.8803,,,,,,1337,MAS,AGR,150,hombro,el,l,0.3848,,190.8803,190.8805,0.177142857,0.055238095,0,0,0,,0,61,61,436,1,,,,
,,,,,,de4ce9491dc5aec2966d826b,66a626ef09d4e21e1a8894ec,6734e028ff74881fa9af6ca2,2024-11-13_18h22.28.850,Tarea de género gramatical,2024.2.2,Win32,59.88023952,,,,,,,,,,,,,,,,,,,,,,,190.8818,192.0157,a,1,[],[],[],[],[],[],[],0.4681,1,192.0158,192.5166,,,,,,1315,FEM,DIS,150,cabina,el,a,0.4681,,192.5167,192.5167,0.177142857,0.055238095,0,0,0,,0,62,62,414,1,,,,
,,,,,,de4ce9491dc5aec2966d826b,66a626ef09d4e21e1a8894ec,6734e028ff74881fa9af6ca2,2024-11-13_18h22.28.850,Tarea de género gramatical,2024.2.2,Win32,59.88023952,,,,,,,,,,,,,,,,,,,,,,,192.5176,193.6355,l,1,[],[],[],[],[],[],[],0.4514,1,193.6356,194.1365,,,,,,1294,MAS,DIS,150,examen,la,l,0.4514,,194.1365,194.1367,0.177142857,0.055238095,0,0,0,,0,63,63,393,1,,,,
,,,,,,de4ce9491dc5aec2966d826b,66a626ef09d4e21e1a8894ec,6734e028ff74881fa9af6ca2,2024-11-13_18h22.28.850,Tarea de género gramatical,2024.2.2,Win32,59.88023952,,,,,,,,,,,,,,,,,,,,,,,194.1376,195.2723,l,1,[],[],[],[],[],[],[],0.4683,1,195.2724,195.7732,,,,,,1169,MAS,AGR,150,primo,el,l,0.4683,,195.7732,195.7733,0.177142857,0.055238095,0,0,0,,0,64,64,268,1,,,,
,,,,,,de4ce9491dc5aec2966d826b,66a626ef09d4e21e1a8894ec,6734e028ff74881fa9af6ca2,2024-11-13_18h22.28.850,Tarea de género gramatical,2024.2.2,Win32,59.88023952,,,,,,,,,,,,,,,,,,,,,,,195.7742,196.8586,l,1,[],[],[],[],[],[],[],0.418,1,196.8587,197.3595,,,,,,1067,MAS,AGR,150,juego,el,l,0.418,,197.3607,197.3613,0.177142857,0.055238095,0,0,0,,0,65,65,166,1,,,,
,,,,,,de4ce9491dc5aec2966d826b,66a626ef09d4e21e1a8894ec,6734e028ff74881fa9af6ca2,2024-11-13_18h22.28.850,Tarea de género gramatical,2024.2.2,Win32,59.88023952,,,,,,,,,,,,,,,,,,,,,,,197.3619,198.3615,l,1,[],[],[],[],[],[],[],0.3211,1,198.3617,198.8626,,,,,,1182,MAS,CON,150,bolso,,l,0.3211,,198.8626,198.8628,0.177142857,0.055238095,0,0,0,,0,66,66,281,1,,,,
,,,,,,de4ce9491dc5aec2966d826b,66a626ef09d4e21e1a8894ec,6734e028ff74881fa9af6ca2,2024-11-13_18h22.28.850,Tarea de género gramatical,2024.2.2,Win32,59.88023952,,,,,,,,,,,,,,,,,,,,,,,198.8636,199.9315,a,1,[],[],[],[],[],[],[],0.4013,1,199.9315,200.4323,,,,,,1333,FEM,DIS,150,huella,el,a,0.4013,,200.4324,200.4326,0.177142857,0.055238095,0,0,0,,0,67,67,432,1,,,,
,,,,,,de4ce9491dc5aec2966d826b,66a626ef09d4e21e1a8894ec,6734e028ff74881fa9af6ca2,2024-11-13_18h22.28.850,Tarea de género gramatical,2024.2.2,Win32,59.88023952,,,,,,,,,,,,,,,,,,,,,,,200.4337,201.4845,l,1,[],[],[],[],[],[],[],0.3846,1,201.4846,201.9854,,,,,,1014,MAS,CON,150,menú,,l,0.3846,,201.9854,201.9856,0.177142857,0.055238095,0,0,0,,0,68,68,113,1,,,,
,,,,,,de4ce9491dc5aec2966d826b,66a626ef09d4e21e1a8894ec,6734e028ff74881fa9af6ca2,2024-11-13_18h22.28.850,Tarea de género gramatical,2024.2.2,Win32,59.88023952,,,,,,,,,,,,,,,,,,,,,,,201.9863,203.0877,l,1,[],[],[],[],[],[],[],0.4381,1,203.0879,203.5887,,,,,,1314,MAS,CON,150,sótano,,l,0.4381,,203.5899,203.5904,0.177142857,0.055238095,0,0,0,,0,69,69,413,1,,,,
,,,,,,de4ce9491dc5aec2966d826b,66a626ef09d4e21e1a8894ec,6734e028ff74881fa9af6ca2,2024-11-13_18h22.28.850,Tarea de género gramatical,2024.2.2,Win32,59.88023952,,,,,,,,,,,,,,,,,,,,,,,203.5911,204.6407,l,1,[],[],[],[],[],[],[],0.3679,1,204.6408,205.1416,,,,,,1319,MAS,AGR,150,cuento,el,l,0.3679,,205.1417,205.1419,0.177142857,0.055238095,0,0,0,,0,70,70,418,1,,,,
,,,,,,de4ce9491dc5aec2966d826b,66a626ef09d4e21e1a8894ec,6734e028ff74881fa9af6ca2,2024-11-13_18h22.28.850,Tarea de género gramatical,2024.2.2,Win32,59.88023952,,,,,,,,,,,,,,,,,,,,,,,205.1427,206.1436,a,1,[],[],[],[],[],[],[],0.3375,1,206.1438,206.6447,,,,,,1303,FEM,DIS,150,paliza,el,a,0.3375,,206.6448,206.6449,0.177142857,0.055238095,0,0,0,,0,71,71,402,1,,,,
,,,,,,de4ce9491dc5aec2966d826b,66a626ef09d4e21e1a8894ec,6734e028ff74881fa9af6ca2,2024-11-13_18h22.28.850,Tarea de género gramatical,2024.2.2,Win32,59.88023952,,,,,,,,,,,,,,,,,,,,,,,206.6457,207.7134,l,1,[],[],[],[],[],[],[],0.4028,1,207.7135,208.2144,,,,,,940,MAS,DIS,150,dios,la,l,0.4028,,208.2145,208.2146,0.177142857,0.055238095,0,0,0,,0,72,72,39,1,,,,
,,,,,,de4ce9491dc5aec2966d826b,66a626ef09d4e21e1a8894ec,6734e028ff74881fa9af6ca2,2024-11-13_18h22.28.850,Tarea de género gramatical,2024.2.2,Win32,59.88023952,,,,,,,,,,,,,,,,,,,,,,,208.2155,209.3167,l,1,[],[],[],[],[],[],[],0.4359,1,209.3168,209.8176,,,,,,1206,MAS,CON,150,dinero,,l,0.4359,,209.8177,209.8178,0.177142857,0.055238095,0,0,0,,0,73,73,305,1,,,,
,,,,,,de4ce9491dc5aec2966d826b,66a626ef09d4e21e1a8894ec,6734e028ff74881fa9af6ca2,2024-11-13_18h22.28.850,Tarea de género gramatical,2024.2.2,Win32,59.88023952,,,,,,,,,,,,,,,,,,,,,,,209.8186,210.9866,l,1,[],[],[],[],[],[],[],0.5014,1,210.9867,211.4878,,,,,,1114,MAS,DIS,150,fondo,la,l,0.5014,,211.4888,211.4897,0.177142857,0.055238095,0,0,0,,0,74,74,213,1,,,,
,,,,,,de4ce9491dc5aec2966d826b,66a626ef09d4e21e1a8894ec,6734e028ff74881fa9af6ca2,2024-11-13_18h22.28.850,Tarea de género gramatical,2024.2.2,Win32,59.88023952,,,,,,,,,,,,,,,,,,,,,,,211.4903,212.4561,l,1,[],[],[],[],[],[],[],0.2842,1,212.4562,212.9572,,,,,,1187,MAS,AGR,150,plato,el,l,0.2842,,212.9572,212.9574,0.177142857,0.055238095,0,0,0,,0,75,75,286,1,,,,
,,,,,,de4ce9491dc5aec2966d826b,66a626ef09d4e21e1a8894ec,6734e028ff74881fa9af6ca2,2024-11-13_18h22.28.850,Tarea de género gramatical,2024.2.2,Win32,59.88023952,,,,,,,,,,,,,,,,,,,,,,,212.9582,214.0094,a,1,[],[],[],[],[],[],[],0.3862,1,214.0095,214.5104,,,,,,1159,FEM,DIS,150,prima,el,a,0.3862,,214.5104,214.5106,0.177142857,0.055238095,0,0,0,,0,76,76,258,1,,,,
,,,,,,de4ce9491dc5aec2966d826b,66a626ef09d4e21e1a8894ec,6734e028ff74881fa9af6ca2,2024-11-13_18h22.28.850,Tarea de género gramatical,2024.2.2,Win32,59.88023952,,,,,,,,,,,,,,,,,,,,,,,214.5113,215.529,a,1,[],[],[],[],[],[],[],0.351,1,215.5291,216.03,,,,,,999,FEM,CON,150,fase,,a,0.351,,216.0301,216.0302,0.177142857,0.055238095,0,0,0,,0,77,77,98,1,,,,
,,,,,,de4ce9491dc5aec2966d826b,66a626ef09d4e21e1a8894ec,6734e028ff74881fa9af6ca2,2024-11-13_18h22.28.850,Tarea de género gramatical,2024.2.2,Win32,59.88023952,,,,,,,,,,,,,,,,,,,,,,,216.0311,217.0653,l,1,[],[],[],[],[],[],[],0.368,1,217.0653,217.5664,,,,,,1210,MAS,DIS,150,nombre,la,l,0.368,,217.5675,217.5683,0.177142857,0.055238095,0,0,0,,0,78,78,309,1,,,,
,,,,,,de4ce9491dc5aec2966d826b,66a626ef09d4e21e1a8894ec,6734e028ff74881fa9af6ca2,2024-11-13_18h22.28.850,Tarea de género gramatical,2024.2.2,Win32,59.88023952,,,,,,,,,,,,,,,,,,,,,,,217.5688,218.635,a,1,[],[],[],[],[],[],[],0.3923,1,218.6352,219.136,,,,,,1053,FEM,CON,150,mujer,,a,0.3923,,219.1361,219.1363,0.177142857,0.055238095,0,0,0,,0,79,79,152,1,,,,
,,,,,,de4ce9491dc5aec2966d826b,66a626ef09d4e21e1a8894ec,6734e028ff74881fa9af6ca2,2024-11-13_18h22.28.850,Tarea de género gramatical,2024.2.2,Win32,59.88023952,,,,,,,,,,,,,,,,,,,,,,,219.1371,220.2053,l,1,[],[],[],[],[],[],[],0.4097,1,220.2054,220.7059,,,,,,1258,MAS,DIS,150,motivo,la,l,0.4097,,220.706,220.7063,0.177142857,0.055238095,0,0,0,,0,80,80,357,1,,,,
,,,,,,de4ce9491dc5aec2966d826b,66a626ef09d4e21e1a8894ec,6734e028ff74881fa9af6ca2,2024-11-13_18h22.28.850,Tarea de género gramatical,2024.2.2,Win32,59.88023952,,,,,,,,,,,,,,,,,,,,,,,220.7077,221.808,a,1,[],[],[],[],[],[],[],0.4375,1,221.8082,222.309,,,,,,1298,FEM,AGR,150,hierba,la,a,0.4375,,222.3091,222.3092,0.177142857,0.055238095,0,0,0,,0,81,81,397,1,,,,
,,,,,,de4ce9491dc5aec2966d826b,66a626ef09d4e21e1a8894ec,6734e028ff74881fa9af6ca2,2024-11-13_18h22.28.850,Tarea de género gramatical,2024.2.2,Win32,59.88023952,,,,,,,,,,,,,,,,,,,,,,,222.31,223.3278,l,1,[],[],[],[],[],[],[],0.3542,1,223.3279,223.8286,,,,,,905,MAS,AGR,150,tipo,el,l,0.3542,,223.8287,223.8289,0.177142857,0.055238095,0,0,0,,0,82,82,4,1,,,,
,,,,,,de4ce9491dc5aec2966d826b,66a626ef09d4e21e1a8894ec,6734e028ff74881fa9af6ca2,2024-11-13_18h22.28.850,Tarea de género gramatical,2024.2.2,Win32,59.88023952,,,,,,,,,,,,,,,,,,,,,,,223.8298,224.8473,a,1,[],[],[],[],[],[],[],0.3511,1,224.8475,225.3483,,,,,,1117,FEM,DIS,150,tarea,el,a,0.3511,,225.3493,225.35,0.177142857,0.055238095,0,0,0,,0,83,83,216,1,,,,
,,,,,,de4ce9491dc5aec2966d826b,66a626ef09d4e21e1a8894ec,6734e028ff74881fa9af6ca2,2024-11-13_18h22.28.850,Tarea de género gramatical,2024.2.2,Win32,59.88023952,,,,,,,,,,,,,,,,,,,,,,,225.3506,226.3503,a,1,[],[],[],[],[],[],[],0.3177,1,226.3504,226.8513,,,,,,1280,FEM,AGR,150,madera,la,a,0.3177,,226.8514,226.8514,0.177142857,0.055238095,0,0,0,,0,84,84,379,1,,,,
,,,,,,de4ce9491dc5aec2966d826b,66a626ef09d4e21e1a8894ec,6734e028ff74881fa9af6ca2,2024-11-13_18h22.28.850,Tarea de género gramatical,2024.2.2,Win32,59.88023952,,,,,,,,,,,,,,,,,,,,,,,226.8524,227.8533,l,1,[],[],[],[],[],[],[],0.3399,1,227.8534,228.3545,,,,,,960,MAS,CON,150,tono,,l,0.3399,,228.3545,228.3546,0.177142857,0.055238095,0,0,0,,0,85,85,59,1,,,,
,,,,,,de4ce9491dc5aec2966d826b,66a626ef09d4e21e1a8894ec,6734e028ff74881fa9af6ca2,2024-11-13_18h22.28.850,Tarea de género gramatical,2024.2.2,Win32,59.88023952,,,,,,,,,,,,,,,,,,,,,,,228.3554,229.2896,a,1,[],[],[],[],[],[],[],0.2677,1,229.2897,229.7906,,,,,,1220,FEM,AGR,150,fiesta,la,a,0.2677,,229.7906,229.7907,0.177142857,0.055238095,0,0,0,,0,86,86,319,1,,,,
,,,,,,de4ce9491dc5aec2966d826b,66a626ef09d4e21e1a8894ec,6734e028ff74881fa9af6ca2,2024-11-13_18h22.28.850,Tarea de género gramatical,2024.2.2,Win32,59.88023952,,,,,,,,,,,,,,,,,,,,,,,229.7915,230.7759,a,1,[],[],[],[],[],[],[],0.3178,1,230.776,231.2769,,,,,,1035,FEM,CON,150,raíz,,a,0.3178,,231.2779,231.2785,0.177142857,0.055238095,0,0,0,,0,87,87,134,1,,,,
,,,,,,de4ce9491dc5aec2966d826b,66a626ef09d4e21e1a8894ec,6734e028ff74881fa9af6ca2,2024-11-13_18h22.28.850,Tarea de género gramatical,2024.2.2,Win32,59.88023952,,,,,,,,,,,,,,,,,,,,,,,231.2791,232.3288,a,1,[],[],[],[],[],[],[],0.3689,1,232.329,232.8298,,,,,,1250,FEM,AGR,150,imagen,la,a,0.3689,,232.8299,232.83,0.177142857,0.055238095,0,0,0,,0,88,88,349,1,,,,
,,,,,,de4ce9491dc5aec2966d826b,66a626ef09d4e21e1a8894ec,6734e028ff74881fa9af6ca2,2024-11-13_18h22.28.850,Tarea de género gramatical,2024.2.2,Win32,59.88023952,,,,,,,,,,,,,,,,,,,,,,,232.8309,233.9655,a,1,[],[],[],[],[],[],[],0.4678,1,233.9656,234.4666,,,,,,1016,FEM,AGR,150,nube,la,a,0.4678,,234.4667,234.4669,0.177142857,0.055238095,0,0,0,,0,89,89,115,1,,,,
,,,,,,de4ce9491dc5aec2966d826b,66a626ef09d4e21e1a8894ec,6734e028ff74881fa9af6ca2,2024-11-13_18h22.28.850,Tarea de género gramatical,2024.2.2,Win32,59.88023952,,,,,,,,,,,,,,,,,,,,,,,234.4678,235.5521,l,1,[],[],[],[],[],[],[],0.4182,1,235.5521,236.053,,,,,,1170,MAS,CON,150,queso,,l,0.4182,,236.0531,236.0533,0.177142857,0.055238095,0,0,0,,0,90,90,269,1,,,,
,,,,,,de4ce9491dc5aec2966d826b,66a626ef09d4e21e1a8894ec,6734e028ff74881fa9af6ca2,2024-11-13_18h22.28.850,Tarea de género gramatical,2024.2.2,Win32,59.88023952,,,,,,,,,,,,,,,,,,,,,,,236.0542,237.0884,a,1,[],[],[],[],[],[],[],0.3677,1,237.0885,237.5894,,,,,,1149,FEM,CON,150,crema,,a,0.3677,,237.5895,237.5896,0.177142857,0.055238095,0,0,0,,0,91,91,248,1,,,,
,,,,,,de4ce9491dc5aec2966d826b,66a626ef09d4e21e1a8894ec,6734e028ff74881fa9af6ca2,2024-11-13_18h22.28.850,Tarea de género gramatical,2024.2.2,Win32,59.88023952,,,,,,,,,,,,,,,,,,,,,,,237.5905,238.6749,a,1,[],[],[],[],[],[],[],0.4259,1,238.675,239.176,,,,,,937,FEM,DIS,150,sala,el,a,0.4259,,239.177,239.1776,0.177142857,0.055238095,0,0,0,,0,92,92,36,1,,,,
,,,,,,de4ce9491dc5aec2966d826b,66a626ef09d4e21e1a8894ec,6734e028ff74881fa9af6ca2,2024-11-13_18h22.28.850,Tarea de género gramatical,2024.2.2,Win32,59.88023952,,,,,,,,,,,,,,,,,,,,,,,239.1781,240.228,a,1,[],[],[],[],[],[],[],0.3746,1,240.2281,240.7289,,,,,,1329,FEM,CON,150,fianza,,a,0.3746,,240.729,240.7292,0.177142857,0.055238095,0,0,0,,0,93,93,428,1,,,,
,,,,,,de4ce9491dc5aec2966d826b,66a626ef09d4e21e1a8894ec,6734e028ff74881fa9af6ca2,2024-11-13_18h22.28.850,Tarea de género gramatical,2024.2.2,Win32,59.88023952,,,,,,,,,,,,,,,,,,,,,,,240.7301,241.781,l,1,[],[],[],[],[],[],[],0.392,1,241.7812,242.2819,,,,,,1084,MAS,DIS,150,cielo,la,l,0.392,,242.2819,242.2822,0.177142857,0.055238095,0,0,0,,0,94,94,183,1,,,,
,,,,,,de4ce9491dc5aec2966d826b,66a626ef09d4e21e1a8894ec,6734e028ff74881fa9af6ca2,2024-11-13_18h22.28.850,Tarea de género gramatical,2024.2.2,Win32,59.88023952,,,,,,,,,,,,,,,,,,,,,,,242.283,243.4177,a,1,[],[],[],[],[],[],[],0.4691,1,243.4178,243.9186,,,,,,1207,FEM,DIS,150,suerte,el,a,0.4691,,243.9187,243.9189,0.177142857,0.055238095,0,0,0,,0,95,95,306,1,,,,
,,,,,,de4ce9491dc5aec2966d826b,66a626ef09d4e21e1a8894ec,6734e028ff74881fa9af6ca2,2024-11-13_18h22.28.850,Tarea de género gramatical,2024.2.2,Win32,59.88023952,,,,,,,,,,,,,,,,,,,,,,,243.9197,245.171,l,1,[],[],[],[],[],[],[],0.5924,1,245.1711,245.6721,,,,,,1307,MAS,AGR,150,jurado,el,l,0.5924,,245.673,245.6737,0.177142857,0.055238095,0,0,0,,0,96,96,406,1,,,,
,,,,,,de4ce9491dc5aec2966d826b,66a626ef09d4e21e1a8894ec,6734e028ff74881fa9af6ca2,2024-11-13_18h22.28.850,Tarea de género gramatical,2024.2.2,Win32,59.88023952,,,,,,,,,,,,,,,,,,,,,,,245.6742,246.724,a,0,[],[],[],[],[],[],[],0.3746,0,246.7249,247.2251,,,,,,1044,MAS,CON,150,amor,,l,0.3746,,247.2251,247.2253,0.177142857,0.055238095,0,0,0,,0,97,97,143,1,,,,
,,,,,,de4ce9491dc5aec2966d826b,66a626ef09d4e21e1a8894ec,6734e028ff74881fa9af6ca2,2024-11-13_18h22.28.850,Tarea de género gramatical,2024.2.2,Win32,59.88023952,,,,,,,,,,,,,,,,,,,,,,,247.2262,248.3274,a,1,[],[],[],[],[],[],[],0.4382,1,248.3281,248.8284,,,,,,1095,FEM,CON,150,pared,,a,0.4382,,248.8284,248.8286,0.177142857,0.055238095,0,0,0,,0,98,98,194,1,,,,
,,,,,,de4ce9491dc5aec2966d826b,66a626ef09d4e21e1a8894ec,6734e028ff74881fa9af6ca2,2024-11-13_18h22.28.850,Tarea de género gramatical,2024.2.2,Win32,59.88023952,,,,,,,,,,,,,,,,,,,,,,,248.8295,250.0138,a,1,[],[],[],[],[],[],[],0.5227,1,250.0139,250.5148,,,,,,1232,FEM,AGR,150,basura,la,a,0.5227,,250.5149,250.5151,0.177142857,0.055238095,0,0,0,,0,99,99,331,1,,,,
,,,,,,de4ce9491dc5aec2966d826b,66a626ef09d4e21e1a8894ec,6734e028ff74881fa9af6ca2,2024-11-13_18h22.28.850,Tarea de género gramatical,2024.2.2,Win32,59.88023952,,,,,,,,,,,,,,,,,,,,,,,250.5161,251.5171,l,1,[],[],[],[],[],[],[],0.3353,1,251.5172,252.0179,,,,,,1296,MAS,CON,150,tesoro,,l,0.3353,,252.018,252.0181,0.177142857,0.055238095,0,0,0,,0,100,100,395,1,,,,
,,,,,,de4ce9491dc5aec2966d826b,66a626ef09d4e21e1a8894ec,6734e028ff74881fa9af6ca2,2024-11-13_18h22.28.850,Tarea de género gramatical,2024.2.2,Win32,59.88023952,,,,,,,,,,,,,,,,,,,,,,,252.019,253.0867,l,1,[],[],[],[],[],[],[],0.4069,1,253.0867,253.5877,,,,,,948,MAS,CON,150,loco,,l,0.4069,,253.5886,253.5892,0.177142857,0.055238095,0,0,0,,0,101,101,47,1,,,,
,,,,,,de4ce9491dc5aec2966d826b,66a626ef09d4e21e1a8894ec,6734e028ff74881fa9af6ca2,2024-11-13_18h22.28.850,Tarea de género gramatical,2024.2.2,Win32,59.88023952,,,,,,,,,,,,,,,,,,,,,,,253.5897,254.6063,a,1,[],[],[],[],[],[],[],0.3345,1,254.6065,255.1075,,,,,,1137,FEM,CON,150,ducha,,a,0.3345,,255.1076,255.1076,0.177142857,0.055238095,0,0,0,,0,102,102,236,1,,,,
,,,,,,de4ce9491dc5aec2966d826b,66a626ef09d4e21e1a8894ec,6734e028ff74881fa9af6ca2,2024-11-13_18h22.28.850,Tarea de género gramatical,2024.2.2,Win32,59.88023952,,,,,,,,,,,,,,,,,,,,,,,255.1085,256.1928,a,1,[],[],[],[],[],[],[],0.4198,1,256.1929,256.6939,,,,,,951,FEM,CON,150,bala,,a,0.4198,,256.6939,256.6941,0.177142857,0.055238095,0,0,0,,0,103,103,50,1,,,,
,,,,,,de4ce9491dc5aec2966d826b,66a626ef09d4e21e1a8894ec,6734e028ff74881fa9af6ca2,2024-11-13_18h22.28.850,Tarea de género gramatical,2024.2.2,Win32,59.88023952,,,,,,,,,,,,,,,,,,,,,,,256.6948,257.796,l,1,[],[],[],[],[],[],[],0.4345,1,257.796,258.2971,,,,,,904,MAS,DIS,150,hijo,la,l,0.4345,,258.2971,258.2972,0.177142857,0.055238095,0,0,0,,0,104,104,3,1,,,,
,,,,,,de4ce9491dc5aec2966d826b,66a626ef09d4e21e1a8894ec,6734e028ff74881fa9af6ca2,2024-11-13_18h22.28.850,Tarea de género gramatical,2024.2.2,Win32,59.88023952,,,,,,,,,,,,,,,,,,,,,,,258.2983,259.3491,l,1,[],[],[],[],[],[],[],0.3845,1,259.3493,259.8501,,,,,,1217,MAS,AGR,150,número,el,l,0.3845,,259.8512,259.8518,0.177142857,0.055238095,0,0,0,,0,105,105,316,1,,,,
,,,,,,de4ce9491dc5aec2966d826b,66a626ef09d4e21e1a8894ec,6734e028ff74881fa9af6ca2,2024-11-13_18h22.28.850,Tarea de género gramatical,2024.2.2,Win32,59.88023952,,,,,,,,,,,,,,,,,,,,,,,259.8523,260.8523,l,1,[],[],[],[],[],[],[],0.3178,1,260.8524,261.3531,,,,,,1199,MAS,AGR,150,rumbo,el,l,0.3178,,261.3532,261.3533,0.177142857,0.055238095,0,0,0,,0,106,106,298,1,,,,
,,,,,,de4ce9491dc5aec2966d826b,66a626ef09d4e21e1a8894ec,6734e028ff74881fa9af6ca2,2024-11-13_18h22.28.850,Tarea de género gramatical,2024.2.2,Win32,59.88023952,,,,,,,,,,,,,,,,,,,,,,,261.3542,262.3218,a,1,[],[],[],[],[],[],[],0.301,1,262.3218,262.8227,,,,,,1093,FEM,DIS,150,bolsa,el,a,0.301,,262.8227,262.8228,0.177142857,0.055238095,0,0,0,,0,107,107,192,1,,,,
,,,,,,de4ce9491dc5aec2966d826b,66a626ef09d4e21e1a8894ec,6734e028ff74881fa9af6ca2,2024-11-13_18h22.28.850,Tarea de género gramatical,2024.2.2,Win32,59.88023952,,,,,,,,,,,,,,,,,,,,,,,262.8236,263.8246,a,1,[],[],[],[],[],[],[],0.3384,1,263.8247,264.3255,,,,,,962,FEM,AGR,150,sopa,la,a,0.3384,,264.3256,264.3258,0.177142857,0.055238095,0,0,0,,0,108,108,61,1,,,,
,,,,,,de4ce9491dc5aec2966d826b,66a626ef09d4e21e1a8894ec,6734e028ff74881fa9af6ca2,2024-11-13_18h22.28.850,Tarea de género gramatical,2024.2.2,Win32,59.88023952,,,,,,,,,,,,,,,,,,,,,,,264.3267,265.3611,l,1,[],[],[],[],[],[],[],0.3693,1,265.3612,265.8621,,,,,,936,MAS,CON,150,dedo,,l,0.3693,,265.8621,265.8622,0.177142857,0.055238095,0,0,0,,0,109,109,35,1,,,,
,,,,,,de4ce9491dc5aec2966d826b,66a626ef09d4e21e1a8894ec,6734e028ff74881fa9af6ca2,2024-11-13_18h22.28.850,Tarea de género gramatical,2024.2.2,Win32,59.88023952,,,,,,,,,,,,,,,,,,,,,,,265.863,266.8474,a,1,[],[],[],[],[],[],[],0.3212,1,266.8475,267.3482,,,,,,1033,FEM,DIS,150,joya,el,a,0.3212,,267.3493,267.3499,0.177142857,0.055238095,0,0,0,,0,110,110,132,1,,,,
,,,,,,de4ce9491dc5aec2966d826b,66a626ef09d4e21e1a8894ec,6734e028ff74881fa9af6ca2,2024-11-13_18h22.28.850,Tarea de género gramatical,2024.2.2,Win32,59.88023952,,,,,,,,,,,,,,,,,,,,,,,267.3505,268.3671,l,0,[],[],[],[],[],[],[],0.338,0,268.3679,268.8681,,,,,,1089,FEM,CON,150,pista,,a,0.338,,268.8681,268.8682,0.177142857,0.055238095,0,0,0,,0,111,111,188,1,,,,
,,,,,,de4ce9491dc5aec2966d826b,66a626ef09d4e21e1a8894ec,6734e028ff74881fa9af6ca2,2024-11-13_18h22.28.850,Tarea de género gramatical,2024.2.2,Win32,59.88023952,,,,,,,,,,,,,,,,,,,,,,,268.8691,270.0537,a,1,[],[],[],[],[],[],[],0.5232,1,270.0546,270.5548,,,,,,1027,FEM,DIS,150,cuna,el,a,0.5232,,270.5549,270.5551,0.177142857,0.055238095,0,0,0,,0,112,112,126,1,,,,
,,,,,,de4ce9491dc5aec2966d826b,66a626ef09d4e21e1a8894ec,6734e028ff74881fa9af6ca2,2024-11-13_18h22.28.850,Tarea de género gramatical,2024.2.2,Win32,59.88023952,,,,,,,,,,,,,,,,,,,,,,,270.5557,271.6568,l,1,[],[],[],[],[],[],[],0.4364,1,271.6569,272.1578,,,,,,1200,MAS,CON,150,túnel,,l,0.4364,,272.1578,272.158,0.177142857,0.055238095,0,0,0,,0,113,113,299,1,,,,
,,,,,,de4ce9491dc5aec2966d826b,66a626ef09d4e21e1a8894ec,6734e028ff74881fa9af6ca2,2024-11-13_18h22.28.850,Tarea de género gramatical,2024.2.2,Win32,59.88023952,,,,,,,,,,,,,,,,,,,,,,,272.1588,273.1764,l,1,[],[],[],[],[],[],[],0.3531,1,273.1766,273.6775,,,,,,1175,MAS,AGR,150,disco,el,l,0.3531,,273.6787,273.6793,0.177142857,0.055238095,0,0,0,,0,114,114,274,1,,,,
,,,,,,de4ce9491dc5aec2966d826b,66a626ef09d4e21e1a8894ec,6734e028ff74881fa9af6ca2,2024-11-13_18h22.28.850,Tarea de género gramatical,2024.2.2,Win32,59.88023952,,,,,,,,,,,,,,,,,,,,,,,273.6799,274.763,a,1,[],[],[],[],[],[],[],0.4029,1,274.7631,275.2641,,,,,,1268,FEM,AGR,150,gracia,la,a,0.4029,,275.2642,275.2642,0.177142857,0.055238095,0,0,0,,0,115,115,367,1,,,,
,,,,,,de4ce9491dc5aec2966d826b,66a626ef09d4e21e1a8894ec,6734e028ff74881fa9af6ca2,2024-11-13_18h22.28.850,Tarea de género gramatical,2024.2.2,Win32,59.88023952,,,,,,,,,,,,,,,,,,,,,,,275.265,276.266,a,1,[],[],[],[],[],[],[],0.3346,1,276.2661,276.7669,,,,,,993,FEM,CON,150,lata,,a,0.3346,,276.7669,276.7672,0.177142857,0.055238095,0,0,0,,0,116,116,92,1,,,,
,,,,,,de4ce9491dc5aec2966d826b,66a626ef09d4e21e1a8894ec,6734e028ff74881fa9af6ca2,2024-11-13_18h22.28.850,Tarea de género gramatical,2024.2.2,Win32,59.88023952,,,,,,,,,,,,,,,,,,,,,,,276.7681,277.7355,a,1,[],[],[],[],[],[],[],0.3009,1,277.7356,278.2366,,,,,,1107,FEM,CON,150,playa,,a,0.3009,,278.2367,278.2369,0.177142857,0.055238095,0,0,0,,0,117,117,206,1,,,,
,,,,,,de4ce9491dc5aec2966d826b,66a626ef09d4e21e1a8894ec,6734e028ff74881fa9af6ca2,2024-11-13_18h22.28.850,Tarea de género gramatical,2024.2.2,Win32,59.88023952,,,,,,,,,,,,,,,,,,,,,,,278.2377,279.1717,a,1,[],[],[],[],[],[],[],0.2678,1,279.1719,279.6728,,,,,,1131,FEM,CON,150,bruja,,a,0.2678,,279.6728,279.673,0.177142857,0.055238095,0,0,0,,0,118,118,230,1,,,,
,,,,,,de4ce9491dc5aec2966d826b,66a626ef09d4e21e1a8894ec,6734e028ff74881fa9af6ca2,2024-11-13_18h22.28.850,Tarea de género gramatical,2024.2.2,Win32,59.88023952,,,,,,,,,,,,,,,,,,,,,,,279.6738,280.6247,a,1,[],[],[],[],[],[],[],0.2863,1,280.6247,281.1257,,,,,,1112,FEM,AGR,150,cinta,la,a,0.2863,,281.1268,281.1275,0.177142857,0.055238095,0,0,0,,0,119,119,211,1,,,,
,,,,,,de4ce9491dc5aec2966d826b,66a626ef09d4e21e1a8894ec,6734e028ff74881fa9af6ca2,2024-11-13_18h22.28.850,Tarea de género gramatical,2024.2.2,Win32,59.88023952,,,,,,,,,,,,,,,,,,,,,,,281.1281,282.1276,a,1,[],[],[],[],[],[],[],0.3178,1,282.1277,282.6285,,,,,,1256,FEM,AGR,150,piedra,la,a,0.3178,,282.6286,282.6288,0.177142857,0.055238095,0,0,0,,0,120,120,355,1,,,,
,,,,,,de4ce9491dc5aec2966d826b,66a626ef09d4e21e1a8894ec,6734e028ff74881fa9af6ca2,2024-11-13_18h22.28.850,Tarea de género gramatical,2024.2.2,Win32,59.88023952,,,,,,,,,,,,,,,,,,,,,,,282.6298,283.5804,l,1,[],[],[],[],[],[],[],0.2844,1,283.5804,284.0815,,,,,,1060,MAS,DIS,150,señor,la,l,0.2844,,284.0816,284.0817,0.177142857,0.055238095,0,0,0,,0,121,121,159,1,,,,
,,,,,,de4ce9491dc5aec2966d826b,66a626ef09d4e21e1a8894ec,6734e028ff74881fa9af6ca2,2024-11-13_18h22.28.850,Tarea de género gramatical,2024.2.2,Win32,59.88023952,,,,,,,,,,,,,,,,,,,,,,,284.0825,285.0501,a,1,[],[],[],[],[],[],[],0.3037,1,285.0502,285.5511,,,,,,1227,FEM,CON,150,tienda,,a,0.3037,,285.5511,285.5513,0.177142857,0.055238095,0,0,0,,0,122,122,326,1,,,,
,,,,,,de4ce9491dc5aec2966d826b,66a626ef09d4e21e1a8894ec,6734e028ff74881fa9af6ca2,2024-11-13_18h22.28.850,Tarea de género gramatical,2024.2.2,Win32,59.88023952,,,,,,,,,,,,,,,,,,,,,,,285.5522,286.6198,l,1,[],[],[],[],[],[],[],0.408,1,286.6199,287.1207,,,,,,1242,MAS,CON,150,abuelo,,l,0.408,,287.1217,287.1224,0.177142857,0.055238095,0,0,0,,0,123,123,341,1,,,,
,,,,,,de4ce9491dc5aec2966d826b,66a626ef09d4e21e1a8894ec,6734e028ff74881fa9af6ca2,2024-11-13_18h22.28.850,Tarea de género gramatical,2024.2.2,Win32,59.88023952,,,,,,,,,,,,,,,,,,,,,,,287.1229,288.1897,l,1,[],[],[],[],[],[],[],0.3896,1,288.1898,288.6905,,,,,,1284,MAS,CON,150,pedazo,,l,0.3896,,288.6906,288.6907,0.177142857,0.055238095,0,0,0,,0,124,124,383,1,,,,
,,,,,,de4ce9491dc5aec2966d826b,66a626ef09d4e21e1a8894ec,6734e028ff74881fa9af6ca2,2024-11-13_18h22.28.850,Tarea de género gramatical,2024.2.2,Win32,59.88023952,,,,,,,,,,,,,,,,,,,,,,,288.6917,289.6592,a,1,[],[],[],[],[],[],[],0.3082,1,289.6593,290.1601,,,,,,901,FEM,DIS,150,casa,el,a,0.3082,,290.1601,290.1604,0.177142857,0.055238095,0,0,0,,0,125,125,0,1,,,,
,,,,,,de4ce9491dc5aec2966d826b,66a626ef09d4e21e1a8894ec,6734e028ff74881fa9af6ca2,2024-11-13_18h22.28.850,Tarea de género gramatical,2024.2.2,Win32,59.88023952,,,,,,,,,,,,,,,,,,,,,,,290.1612,291.2122,l,1,[],[],[],[],[],[],[],0.391,1,291.2123,291.7133,,,,,,1193,MAS,AGR,150,patio,el,l,0.391,,291.7134,291.7136,0.177142857,0.055238095,0,0,0,,0,126,126,292,1,,,,
,,,,,,de4ce9491dc5aec2966d826b,66a626ef09d4e21e1a8894ec,6734e028ff74881fa9af6ca2,2024-11-13_18h22.28.850,Tarea de género gramatical,2024.2.2,Win32,59.88023952,,,,,,,,,,,,,,,,,,,,,,,291.7149,292.732,l,1,[],[],[],[],[],[],[],0.3498,1,292.7321,293.2328,,,,,,1163,MAS,AGR,150,carro,el,l,0.3498,,293.2329,293.2331,0.177142857,0.055238095,0,0,0,,0,127,127,262,1,,,,
,,,,,,de4ce9491dc5aec2966d826b,66a626ef09d4e21e1a8894ec,6734e028ff74881fa9af6ca2,2024-11-13_18h22.28.850,Tarea de género gramatical,2024.2.2,Win32,59.88023952,,,,,,,,,,,,,,,,,,,,,,,293.234,294.2683,a,1,[],[],[],[],[],[],[],0.3679,1,294.2685,294.7692,,,,,,1263,FEM,CON,150,unidad,,a,0.3679,,294.7702,294.7709,0.177142857,0.055238095,0,0,0,,0,128,128,362,1,,,,
,,,,,,de4ce9491dc5aec2966d826b,66a626ef09d4e21e1a8894ec,6734e028ff74881fa9af6ca2,2024-11-13_18h22.28.850,Tarea de género gramatical,2024.2.2,Win32,59.88023952,,,,,,,,,,,,,,,,,,,,,,,294.7715,295.8046,a,1,[],[],[],[],[],[],[],0.3513,1,295.8047,296.3057,,,,,,1225,FEM,DIS,150,tierra,el,a,0.3513,,296.3057,296.3059,0.177142857,0.055238095,0,0,0,,0,129,129,324,1,,,,
,,,,,,de4ce9491dc5aec2966d826b,66a626ef09d4e21e1a8894ec,6734e028ff74881fa9af6ca2,2024-11-13_18h22.28.850,Tarea de género gramatical,2024.2.2,Win32,59.88023952,,,,,,,,,,,,,,,,,,,,,,,296.3068,297.3243,l,1,[],[],[],[],[],[],[],0.3511,1,297.3243,297.8254,,,,,,1061,MAS,AGR,150,chico,el,l,0.3511,,297.8255,297.8256,0.177142857,0.055238095,0,0,0,,0,130,130,160,1,,,,
,,,,,,de4ce9491dc5aec2966d826b,66a626ef09d4e21e1a8894ec,6734e028ff74881fa9af6ca2,2024-11-13_18h22.28.850,Tarea de género gramatical,2024.2.2,Win32,59.88023952,,,,,,,,,,,,,,,,,,,,,,,297.8264,298.8942,l,1,[],[],[],[],[],[],[],0.4014,1,298.8943,299.3952,,,,,,1162,MAS,DIS,150,video,la,l,0.4014,,299.3952,299.3954,0.177142857,0.055238095,0,0,0,,0,131,131,261,1,,,,
,,,,,,de4ce9491dc5aec2966d826b,66a626ef09d4e21e1a8894ec,6734e028ff74881fa9af6ca2,2024-11-13_18h22.28.850,Tarea de género gramatical,2024.2.2,Win32,59.88023952,,,,,,,,,,,,,,,,,,,,,,,299.3963,300.3471,a,0,[],[],[],[],[],[],[],0.2844,0,300.3479,300.8479,,,,,,1042,MAS,DIS,150,lodo,la,l,0.2844,,300.849,300.8496,0.177142857,0.055238095,0,0,0,,0,132,132,141,1,,,,
,,,,,,de4ce9491dc5aec2966d826b,66a626ef09d4e21e1a8894ec,6734e028ff74881fa9af6ca2,2024-11-13_18h22.28.850,Tarea de género gramatical,2024.2.2,Win32,59.88023952,,,,,,,,,,,,,,,,,,,,,,,300.8502,301.8,a,1,[],[],[],[],[],[],[],0.2677,1,301.8008,302.3008,,,,,,1076,FEM,AGR,150,línea,la,a,0.2677,,302.3009,302.301,0.177142857,0.055238095,0,0,0,,0,133,133,175,1,,,,
,,,,,,de4ce9491dc5aec2966d826b,66a626ef09d4e21e1a8894ec,6734e028ff74881fa9af6ca2,2024-11-13_18h22.28.850,Tarea de género gramatical,2024.2.2,Win32,59.88023952,,,,,,,,,,,,,,,,,,,,,,,302.3019,303.4197,a,1,[],[],[],[],[],[],[],0.4577,1,303.4198,303.9207,,,,,,1202,FEM,AGR,150,cabeza,la,a,0.4577,,303.9207,303.9209,0.177142857,0.055238095,0,0,0,,0,134,134,301,1,,,,
,,,,,,de4ce9491dc5aec2966d826b,66a626ef09d4e21e1a8894ec,6734e028ff74881fa9af6ca2,2024-11-13_18h22.28.850,Tarea de género gramatical,2024.2.2,Win32,59.88023952,,,,,,,,,,,,,,,,,,,,,,,303.9218,304.9226,l,1,[],[],[],[],[],[],[],0.3421,1,304.9228,305.4237,,,,,,1098,MAS,CON,150,hotel,,l,0.3421,,305.4237,305.4239,0.177142857,0.055238095,0,0,0,,0,135,135,197,1,,,,
,,,,,,de4ce9491dc5aec2966d826b,66a626ef09d4e21e1a8894ec,6734e028ff74881fa9af6ca2,2024-11-13_18h22.28.850,Tarea de género gramatical,2024.2.2,Win32,59.88023952,,,,,,,,,,,,,,,,,,,,,,,305.4249,306.4425,l,1,[],[],[],[],[],[],[],0.3534,1,306.4425,306.9435,,,,,,1180,MAS,DIS,150,salón,la,l,0.3534,,306.9435,306.9437,0.177142857,0.055238095,0,0,0,,0,136,136,279,1,,,,
,,,,,,de4ce9491dc5aec2966d826b,66a626ef09d4e21e1a8894ec,6734e028ff74881fa9af6ca2,2024-11-13_18h22.28.850,Tarea de género gramatical,2024.2.2,Win32,59.88023952,,,,,,,,,,,,,,,,,,,,,,,306.9445,307.8954,l,1,[],[],[],[],[],[],[],0.2873,1,307.8955,308.3962,,,,,,1055,MAS,AGR,150,mundo,el,l,0.2873,,308.3972,308.3979,0.177142857,0.055238095,0,0,0,,0,137,137,154,1,,,,
,,,,,,de4ce9491dc5aec2966d826b,66a626ef09d4e21e1a8894ec,6734e028ff74881fa9af6ca2,2024-11-13_18h22.28.850,Tarea de género gramatical,2024.2.2,Win32,59.88023952,,,,,,,,,,,,,,,,,,,,,,,308.3985,309.3816,a,1,[],[],[],[],[],[],[],0.3056,1,309.3817,309.8825,,,,,,1130,FEM,AGR,150,regla,la,a,0.3056,,309.8826,309.8827,0.177142857,0.055238095,0,0,0,,0,138,138,229,1,,,,
,,,,,,de4ce9491dc5aec2966d826b,66a626ef09d4e21e1a8894ec,6734e028ff74881fa9af6ca2,2024-11-13_18h22.28.850,Tarea de género gramatical,2024.2.2,Win32,59.88023952,,,,,,,,,,,,,,,,,,,,,,,309.8836,310.918,a,1,[],[],[],[],[],[],[],0.3678,1,310.9182,311.4189,,,,,,1203,FEM,CON,150,maldad,,a,0.3678,,311.4189,311.419,0.177142857,0.055238095,0,0,0,,0,139,139,302,1,,,,
,,,,,,de4ce9491dc5aec2966d826b,66a626ef09d4e21e1a8894ec,6734e028ff74881fa9af6ca2,2024-11-13_18h22.28.850,Tarea de género gramatical,2024.2.2,Win32,59.88023952,,,,,,,,,,,,,,,,,,,,,,,311.4198,312.3541,a,1,[],[],[],[],[],[],[],0.268,1,312.3542,312.855,,,,,,933,FEM,CON,150,boda,,a,0.268,,312.8551,312.8553,0.177142857,0.055238095,0,0,0,,0,140,140,32,1,,,,
,,,,,,de4ce9491dc5aec2966d826b,66a626ef09d4e21e1a8894ec,6734e028ff74881fa9af6ca2,2024-11-13_18h22.28.850,Tarea de género gramatical,2024.2.2,Win32,59.88023952,,,,,,,,,,,,,,,,,,,,,,,312.8561,313.8235,l,1,[],[],[],[],[],[],[],0.3038,1,313.8236,314.3247,,,,,,1288,MAS,DIS,150,empleo,la,l,0.3038,,314.3258,314.3265,0.177142857,0.055238095,0,0,0,,0,141,141,387,1,,,,
,,,,,,de4ce9491dc5aec2966d826b,66a626ef09d4e21e1a8894ec,6734e028ff74881fa9af6ca2,2024-11-13_18h22.28.850,Tarea de género gramatical,2024.2.2,Win32,59.88023952,,,,,,,,,,,,,,,,,,,,,,,314.327,315.4102,a,1,[],[],[],[],[],[],[],0.4014,1,315.4104,315.9112,,,,,,1179,FEM,CON,150,selva,,a,0.4014,,315.9113,315.9114,0.177142857,0.055238095,0,0,0,,0,142,142,278,1,,,,
,,,,,,de4ce9491dc5aec2966d826b,66a626ef09d4e21e1a8894ec,6734e028ff74881fa9af6ca2,2024-11-13_18h22.28.850,Tarea de género gramatical,2024.2.2,Win32,59.88023952,,,,,,,,,,,,,,,,,,,,,,,315.9126,316.9298,l,1,[],[],[],[],[],[],[],0.3512,1,316.9299,317.4308,,,,,,1116,MAS,CON,150,éxito,,l,0.3512,,317.4309,317.431,0.177142857,0.055238095,0,0,0,,0,143,143,215,1,,,,
,,,,,,de4ce9491dc5aec2966d826b,66a626ef09d4e21e1a8894ec,6734e028ff74881fa9af6ca2,2024-11-13_18h22.28.850,Tarea de género gramatical,2024.2.2,Win32,59.88023952,,,,,,,,,,,,,,,,,,,,,,,317.4318,318.3996,l,1,[],[],[],[],[],[],[],0.3011,1,318.3997,318.9004,,,,,,1091,MAS,AGR,150,dolor,el,l,0.3011,,318.9004,318.9006,0.177142857,0.055238095,0,0,0,,0,144,144,190,1,,,,
,,,,,,de4ce9491dc5aec2966d826b,66a626ef09d4e21e1a8894ec,6734e028ff74881fa9af6ca2,2024-11-13_18h22.28.850,Tarea de género gramatical,2024.2.2,Win32,59.88023952,,,,,,,,,,,,,,,,,,,,,,,318.9014,320.0025,l,1,[],[],[],[],[],[],[],0.4349,1,320.0026,320.5035,,,,,,1344,MAS,CON,150,límite,,l,0.4349,,320.5036,320.5037,0.177142857,0.055238095,0,0,0,,0,145,145,443,1,,,,
,,,,,,de4ce9491dc5aec2966d826b,66a626ef09d4e21e1a8894ec,6734e028ff74881fa9af6ca2,2024-11-13_18h22.28.850,Tarea de género gramatical,2024.2.2,Win32,59.88023952,,,,,,,,,,,,,,,,,,,,,,,320.5046,321.656,a,1,[],[],[],[],[],[],[],0.4871,1,321.6561,322.157,,,,,,1142,FEM,AGR,150,pizza,la,a,0.4871,,322.1579,322.1586,0.177142857,0.055238095,0,0,0,,0,146,146,241,1,,,,
,,,,,,de4ce9491dc5aec2966d826b,66a626ef09d4e21e1a8894ec,6734e028ff74881fa9af6ca2,2024-11-13_18h22.28.850,Tarea de género gramatical,2024.2.2,Win32,59.88023952,,,,,,,,,,,,,,,,,,,,,,,322.1592,323.1255,a,1,[],[],[],[],[],[],[],0.2892,1,323.1255,323.6264,,,,,,939,FEM,CON,150,luna,,a,0.2892,,323.6264,323.6266,0.177142857,0.055238095,0,0,0,,0,147,147,38,1,,,,
,,,,,,de4ce9491dc5aec2966d826b,66a626ef09d4e21e1a8894ec,6734e028ff74881fa9af6ca2,2024-11-13_18h22.28.850,Tarea de género gramatical,2024.2.2,Win32,59.88023952,,,,,,,,,,,,,,,,,,,,,,,323.6274,324.5784,a,1,[],[],[],[],[],[],[],0.2845,1,324.5785,325.0793,,,,,,909,FEM,CON,150,mamá,,a,0.2845,,325.0793,325.0796,0.177142857,0.055238095,0,0,0,,0,148,148,8,1,,,,
,,,,,,de4ce9491dc5aec2966d826b,66a626ef09d4e21e1a8894ec,6734e028ff74881fa9af6ca2,2024-11-13_18h22.28.850,Tarea de género gramatical,2024.2.2,Win32,59.88023952,,,,,,,,,,,,,,,,,,,,,,,325.0803,326.0979,a,1,[],[],[],[],[],[],[],0.3513,1,326.098,326.5989,,,,,,1077,FEM,CON,150,broma,,a,0.3513,,326.5989,326.5991,0.177142857,0.055238095,0,0,0,,0,149,149,176,1,,,,
,,,,,,de4ce9491dc5aec2966d826b,66a626ef09d4e21e1a8894ec,6734e028ff74881fa9af6ca2,2024-11-13_18h22.28.850,Tarea de género gramatical,2024.2.2,Win32,59.88023952,,,,,,,,,,,,,,,,,,,,,,,326.6,327.7513,l,1,[],[],[],[],[],[],[],0.4896,1,327.7514,328.2522,,,,,,1109,MAS,AGR,150,banco,el,l,0.4896,,328.2531,341.9461,0.177142857,0.055238095,0,0,0,space,0,150,150,208,1,13.6749,,,
,,,,,,de4ce9491dc5aec2966d826b,66a626ef09d4e21e1a8894ec,6734e028ff74881fa9af6ca2,2024-11-13_18h22.28.850,Tarea de género gramatical,2024.2.2,Win32,59.88023952,,,,,,,,,,,,,,,,,,,,,,,341.9474,343.1986,a,0,[],[],[],[],[],[],[],0.5883,0,343.1995,343.6995,,,,,,910,MAS,DIS,150,niño,la,l,0.5883,,343.6996,343.6996,0.177142857,0.055238095,0,0,0,,0,151,151,9,1,,,,
,,,,,,de4ce9491dc5aec2966d826b,66a626ef09d4e21e1a8894ec,6734e028ff74881fa9af6ca2,2024-11-13_18h22.28.850,Tarea de género gramatical,2024.2.2,Win32,59.88023952,,,,,,,,,,,,,,,,,,,,,,,343.7005,344.7183,l,1,[],[],[],[],[],[],[],0.3512,1,344.7191,345.2193,,,,,,966,MAS,CON,150,muro,,l,0.3512,,345.2194,345.2195,0.177142857,0.055238095,0,0,0,,0,152,152,65,1,,,,
,,,,,,de4ce9491dc5aec2966d826b,66a626ef09d4e21e1a8894ec,6734e028ff74881fa9af6ca2,2024-11-13_18h22.28.850,Tarea de género gramatical,2024.2.2,Win32,59.88023952,,,,,,,,,,,,,,,,,,,,,,,345.2204,346.405,l,1,[],[],[],[],[],[],[],0.5183,1,346.4052,346.906,,,,,,1097,MAS,AGR,150,avión,el,l,0.5183,,346.906,346.9061,0.177142857,0.055238095,0,0,0,,0,153,153,196,1,,,,
,,,,,,de4ce9491dc5aec2966d826b,66a626ef09d4e21e1a8894ec,6734e028ff74881fa9af6ca2,2024-11-13_18h22.28.850,Tarea de género gramatical,2024.2.2,Win32,59.88023952,,,,,,,,,,,,,,,,,,,,,,,346.9071,348.0248,a,1,[],[],[],[],[],[],[],0.4512,1,348.0248,348.5257,,,,,,1161,FEM,CON,150,cueva,,a,0.4512,,348.5259,348.526,0.177142857,0.055238095,0,0,0,,0,154,154,260,1,,,,
,,,,,,de4ce9491dc5aec2966d826b,66a626ef09d4e21e1a8894ec,6734e028ff74881fa9af6ca2,2024-11-13_18h22.28.850,Tarea de género gramatical,2024.2.2,Win32,59.88023952,,,,,,,,,,,,,,,,,,,,,,,348.5268,349.6782,a,1,[],[],[],[],[],[],[],0.4847,1,349.6783,350.179,,,,,,1058,FEM,AGR,150,chica,la,a,0.4847,,350.18,350.1807,0.177142857,0.055238095,0,0,0,,0,155,155,157,1,,,,
,,,,,,de4ce9491dc5aec2966d826b,66a626ef09d4e21e1a8894ec,6734e028ff74881fa9af6ca2,2024-11-13_18h22.28.850,Tarea de género gramatical,2024.2.2,Win32,59.88023952,,,,,,,,,,,,,,,,,,,,,,,350.1813,351.3315,l,1,[],[],[],[],[],[],[],0.4679,1,351.3316,351.8322,,,,,,1295,MAS,AGR,150,correo,el,l,0.4679,,351.8323,351.8326,0.177142857,0.055238095,0,0,0,,0,156,156,394,1,,,,
,,,,,,de4ce9491dc5aec2966d826b,66a626ef09d4e21e1a8894ec,6734e028ff74881fa9af6ca2,2024-11-13_18h22.28.850,Tarea de género gramatical,2024.2.2,Win32,59.88023952,,,,,,,,,,,,,,,,,,,,,,,351.8337,352.9345,l,1,[],[],[],[],[],[],[],0.4402,1,352.9346,353.4355,,,,,,996,MAS,CON,150,pato,,l,0.4402,,353.4356,353.4357,0.177142857,0.055238095,0,0,0,,0,157,157,95,1,,,,
,,,,,,de4ce9491dc5aec2966d826b,66a626ef09d4e21e1a8894ec,6734e028ff74881fa9af6ca2,2024-11-13_18h22.28.850,Tarea de género gramatical,2024.2.2,Win32,59.88023952,,,,,,,,,,,,,,,,,,,,,,,353.4365,354.4375,a,1,[],[],[],[],[],[],[],0.3343,1,354.4376,354.9385,,,,,,1208,FEM,AGR,150,semana,la,a,0.3343,,354.9387,354.9388,0.177142857,0.055238095,0,0,0,,0,158,158,307,1,,,,
,,,,,,de4ce9491dc5aec2966d826b,66a626ef09d4e21e1a8894ec,6734e028ff74881fa9af6ca2,2024-11-13_18h22.28.850,Tarea de género gramatical,2024.2.2,Win32,59.88023952,,,,,,,,,,,,,,,,,,,,,,,354.9398,356.0575,l,1,[],[],[],[],[],[],[],0.452,1,356.0576,356.5584,,,,,,1108,MAS,DIS,150,suelo,la,l,0.452,,356.5595,356.5601,0.177142857,0.055238095,0,0,0,,0,159,159,207,1,,,,
,,,,,,de4ce9491dc5aec2966d826b,66a626ef09d4e21e1a8894ec,6734e028ff74881fa9af6ca2,2024-11-13_18h22.28.850,Tarea de género gramatical,2024.2.2,Win32,59.88023952,,,,,,,,,,,,,,,,,,,,,,,356.5606,357.6103,a,1,[],[],[],[],[],[],[],0.3753,1,357.6105,358.1115,,,,,,981,FEM,CON,150,cima,,a,0.3753,,358.1115,358.1118,0.177142857,0.055238095,0,0,0,,0,160,160,80,1,,,,
,,,,,,de4ce9491dc5aec2966d826b,66a626ef09d4e21e1a8894ec,6734e028ff74881fa9af6ca2,2024-11-13_18h22.28.850,Tarea de género gramatical,2024.2.2,Win32,59.88023952,,,,,,,,,,,,,,,,,,,,,,,358.1127,359.1803,l,1,[],[],[],[],[],[],[],0.401,1,359.1804,359.6812,,,,,,988,MAS,DIS,150,pavo,la,l,0.401,,359.6812,359.6814,0.177142857,0.055238095,0,0,0,,0,161,161,87,1,,,,
,,,,,,de4ce9491dc5aec2966d826b,66a626ef09d4e21e1a8894ec,6734e028ff74881fa9af6ca2,2024-11-13_18h22.28.850,Tarea de género gramatical,2024.2.2,Win32,59.88023952,,,,,,,,,,,,,,,,,,,,,,,359.6822,360.8668,l,1,[],[],[],[],[],[],[],0.5252,1,360.867,361.3678,,,,,,1186,MAS,DIS,150,reino,la,l,0.5252,,361.3678,361.3681,0.177142857,0.055238095,0,0,0,,0,162,162,285,1,,,,
,,,,,,de4ce9491dc5aec2966d826b,66a626ef09d4e21e1a8894ec,6734e028ff74881fa9af6ca2,2024-11-13_18h22.28.850,Tarea de género gramatical,2024.2.2,Win32,59.88023952,,,,,,,,,,,,,,,,,,,,,,,361.3688,362.4033,l,1,[],[],[],[],[],[],[],0.3679,1,362.4034,362.9042,,,,,,1122,MAS,CON,150,valor,,l,0.3679,,362.9043,362.9045,0.177142857,0.055238095,0,0,0,,0,163,163,221,1,,,,
,,,,,,de4ce9491dc5aec2966d826b,66a626ef09d4e21e1a8894ec,6734e028ff74881fa9af6ca2,2024-11-13_18h22.28.850,Tarea de género gramatical,2024.2.2,Win32,59.88023952,,,,,,,,,,,,,,,,,,,,,,,362.9052,363.973,l,1,[],[],[],[],[],[],[],0.4014,1,363.9731,364.4741,,,,,,1306,MAS,DIS,150,premio,la,l,0.4014,,364.4751,364.4759,0.177142857,0.055238095,0,0,0,,0,164,164,405,1,,,,
,,,,,,de4ce9491dc5aec2966d826b,66a626ef09d4e21e1a8894ec,6734e028ff74881fa9af6ca2,2024-11-13_18h22.28.850,Tarea de género gramatical,2024.2.2,Win32,59.88023952,,,,,,,,,,,,,,,,,,,,,,,364.4767,365.4761,l,1,[],[],[],[],[],[],[],0.3179,1,365.4762,365.977,,,,,,1241,MAS,AGR,150,precio,el,l,0.3179,,365.9771,365.9772,0.177142857,0.055238095,0,0,0,,0,165,165,340,1,,,,
,,,,,,de4ce9491dc5aec2966d826b,66a626ef09d4e21e1a8894ec,6734e028ff74881fa9af6ca2,2024-11-13_18h22.28.850,Tarea de género gramatical,2024.2.2,Win32,59.88023952,,,,,,,,,,,,,,,,,,,,,,,365.978,367.0459,l,1,[],[],[],[],[],[],[],0.405,1,367.046,367.5468,,,,,,1234,MAS,DIS,150,ataque,la,l,0.405,,367.5468,367.547,0.177142857,0.055238095,0,0,0,,0,166,166,333,1,,,,
,,,,,,de4ce9491dc5aec2966d826b,66a626ef09d4e21e1a8894ec,6734e028ff74881fa9af6ca2,2024-11-13_18h22.28.850,Tarea de género gramatical,2024.2.2,Win32,59.88023952,,,,,,,,,,,,,,,,,,,,,,,367.5477,368.6823,l,1,[],[],[],[],[],[],[],0.4683,1,368.6825,369.1835,,,,,,1001,MAS,AGR,150,giro,el,l,0.4683,,369.1836,369.1838,0.177142857,0.055238095,0,0,0,,0,167,167,100,1,,,,
,,,,,,de4ce9491dc5aec2966d826b,66a626ef09d4e21e1a8894ec,6734e028ff74881fa9af6ca2,2024-11-13_18h22.28.850,Tarea de género gramatical,2024.2.2,Win32,59.88023952,,,,,,,,,,,,,,,,,,,,,,,369.1847,370.2021,a,1,[],[],[],[],[],[],[],0.3513,1,370.2022,370.7031,,,,,,997,FEM,DIS,150,capa,el,a,0.3513,,370.7043,370.705,0.177142857,0.055238095,0,0,0,,0,168,168,96,1,,,,
,,,,,,de4ce9491dc5aec2966d826b,66a626ef09d4e21e1a8894ec,6734e028ff74881fa9af6ca2,2024-11-13_18h22.28.850,Tarea de género gramatical,2024.2.2,Win32,59.88023952,,,,,,,,,,,,,,,,,,,,,,,370.7056,371.8554,l,0,[],[],[],[],[],[],[],0.4706,0,371.8562,372.3562,,,,,,949,FEM,DIS,150,piel,el,a,0.4706,,372.3563,372.3564,0.177142857,0.055238095,0,0,0,,0,169,169,48,1,,,,
,,,,,,de4ce9491dc5aec2966d826b,66a626ef09d4e21e1a8894ec,6734e028ff74881fa9af6ca2,2024-11-13_18h22.28.850,Tarea de género gramatical,2024.2.2,Win32,59.88023952,,,,,,,,,,,,,,,,,,,,,,,372.3572,373.542,l,1,[],[],[],[],[],[],[],0.5218,1,373.5429,374.0429,,,,,,912,MAS,CON,150,plan,,l,0.5218,,374.043,374.0431,0.177142857,0.055238095,0,0,0,,0,170,170,11,1,,,,
,,,,,,de4ce9491dc5aec2966d826b,66a626ef09d4e21e1a8894ec,6734e028ff74881fa9af6ca2,2024-11-13_18h22.28.850,Tarea de género gramatical,2024.2.2,Win32,59.88023952,,,,,,,,,,,,,,,,,,,,,,,374.044,375.262,a,1,[],[],[],[],[],[],[],0.5514,1,375.2621,375.763,,,,,,1269,FEM,CON,150,camisa,,a,0.5514,,375.7631,375.7632,0.177142857,0.055238095,0,0,0,,0,171,171,368,1,,,,
,,,,,,de4ce9491dc5aec2966d826b,66a626ef09d4e21e1a8894ec,6734e028ff74881fa9af6ca2,2024-11-13_18h22.28.850,Tarea de género gramatical,2024.2.2,Win32,59.88023952,,,,,,,,,,,,,,,,,,,,,,,375.764,376.8652,a,1,[],[],[],[],[],[],[],0.4347,1,376.8653,377.3662,,,,,,1129,FEM,DIS,150,celda,el,a,0.4347,,377.3663,377.3665,0.177142857,0.055238095,0,0,0,,0,172,172,228,1,,,,
,,,,,,de4ce9491dc5aec2966d826b,66a626ef09d4e21e1a8894ec,6734e028ff74881fa9af6ca2,2024-11-13_18h22.28.850,Tarea de género gramatical,2024.2.2,Win32,59.88023952,,,,,,,,,,,,,,,,,,,,,,,377.3672,378.6856,l,1,[],[],[],[],[],[],[],0.6518,1,378.6857,379.1866,,,,,,1248,MAS,CON,150,anillo,,l,0.6518,,379.1876,379.1883,0.177142857,0.055238095,0,0,0,,0,173,173,347,1,,,,
,,,,,,de4ce9491dc5aec2966d826b,66a626ef09d4e21e1a8894ec,6734e028ff74881fa9af6ca2,2024-11-13_18h22.28.850,Tarea de género gramatical,2024.2.2,Win32,59.88023952,,,,,,,,,,,,,,,,,,,,,,,379.1888,380.6061,a,0,[],[],[],[],[],[],[],0.7353,0,380.607,381.107,,,,,,1024,MAS,DIS,150,clan,la,l,0.7353,,381.1071,381.1073,0.177142857,0.055238095,0,0,0,,0,174,174,123,1,,,,
,,,,,,de4ce9491dc5aec2966d826b,66a626ef09d4e21e1a8894ec,6734e028ff74881fa9af6ca2,2024-11-13_18h22.28.850,Tarea de género gramatical,2024.2.2,Win32,59.88023952,,,,,,,,,,,,,,,,,,,,,,,381.1081,382.2258,a,1,[],[],[],[],[],[],[],0.4513,1,382.2265,382.727,,,,,,1075,FEM,DIS,150,señal,el,a,0.4513,,382.727,382.7272,0.177142857,0.055238095,0,0,0,,0,175,175,174,1,,,,
,,,,,,de4ce9491dc5aec2966d826b,66a626ef09d4e21e1a8894ec,6734e028ff74881fa9af6ca2,2024-11-13_18h22.28.850,Tarea de género gramatical,2024.2.2,Win32,59.88023952,,,,,,,,,,,,,,,,,,,,,,,382.728,384.163,a,1,[],[],[],[],[],[],[],0.7754,1,384.1631,384.6641,,,,,,956,FEM,AGR,150,bola,la,a,0.7754,,384.6641,384.6643,0.177142857,0.055238095,0,0,0,,0,176,176,55,1,,,,
,,,,,,de4ce9491dc5aec2966d826b,66a626ef09d4e21e1a8894ec,6734e028ff74881fa9af6ca2,2024-11-13_18h22.28.850,Tarea de género gramatical,2024.2.2,Win32,59.88023952,,,,,,,,,,,,,,,,,,,,,,,384.6651,385.8163,l,1,[],[],[],[],[],[],[],0.4848,1,385.8164,386.3174,,,,,,1331,MAS,AGR,150,veneno,el,l,0.4848,,386.3185,386.3192,0.177142857,0.055238095,0,0,0,,0,177,177,430,1,,,,
,,,,,,de4ce9491dc5aec2966d826b,66a626ef09d4e21e1a8894ec,6734e028ff74881fa9af6ca2,2024-11-13_18h22.28.850,Tarea de género gramatical,2024.2.2,Win32,59.88023952,,,,,,,,,,,,,,,,,,,,,,,386.3198,387.5196,l,1,[],[],[],[],[],[],[],0.5202,1,387.5197,388.0206,,,,,,946,MAS,DIS,150,odio,la,l,0.5202,,388.0207,388.0208,0.177142857,0.055238095,0,0,0,,0,178,178,45,1,,,,
,,,,,,de4ce9491dc5aec2966d826b,66a626ef09d4e21e1a8894ec,6734e028ff74881fa9af6ca2,2024-11-13_18h22.28.850,Tarea de género gramatical,2024.2.2,Win32,59.88023952,,,,,,,,,,,,,,,,,,,,,,,388.0217,389.2899,a,1,[],[],[],[],[],[],[],0.602,1,389.2901,389.7907,,,,,,1155,FEM,CON,150,tribu,,a,0.602,,389.7908,389.7909,0.177142857,0.055238095,0,0,0,,0,179,179,254,1,,,,
,,,,,,de4ce9491dc5aec2966d826b,66a626ef09d4e21e1a8894ec,6734e028ff74881fa9af6ca2,2024-11-13_18h22.28.850,Tarea de género gramatical,2024.2.2,Win32,59.88023952,,,,,,,,,,,,,,,,,,,,,,,389.7918,390.9265,l,1,[],[],[],[],[],[],[],0.4715,1,390.9266,391.4273,,,,,,1150,MAS,DIS,150,cerdo,la,l,0.4715,,391.4275,391.4277,0.177142857,0.055238095,0,0,0,,0,180,180,249,1,,,,
,,,,,,de4ce9491dc5aec2966d826b,66a626ef09d4e21e1a8894ec,6734e028ff74881fa9af6ca2,2024-11-13_18h22.28.850,Tarea de género gramatical,2024.2.2,Win32,59.88023952,,,,,,,,,,,,,,,,,,,,,,,391.4285,392.5464,a,1,[],[],[],[],[],[],[],0.459,1,392.5465,393.0473,,,,,,967,FEM,DIS,150,miel,el,a,0.459,,393.0473,393.0475,0.177142857,0.055238095,0,0,0,,0,181,181,66,1,,,,
,,,,,,de4ce9491dc5aec2966d826b,66a626ef09d4e21e1a8894ec,6734e028ff74881fa9af6ca2,2024-11-13_18h22.28.850,Tarea de género gramatical,2024.2.2,Win32,59.88023952,,,,,,,,,,,,,,,,,,,,,,,393.0483,394.2497,l,1,[],[],[],[],[],[],[],0.535,1,394.2498,394.7508,,,,,,1144,MAS,DIS,150,hielo,la,l,0.535,,394.7517,394.7524,0.177142857,0.055238095,0,0,0,,0,182,182,243,1,,,,
,,,,,,de4ce9491dc5aec2966d826b,66a626ef09d4e21e1a8894ec,6734e028ff74881fa9af6ca2,2024-11-13_18h22.28.850,Tarea de género gramatical,2024.2.2,Win32,59.88023952,,,,,,,,,,,,,,,,,,,,,,,394.753,395.8195,l,1,[],[],[],[],[],[],[],0.3845,1,395.8196,396.3206,,,,,,1013,MAS,AGR,150,toro,el,l,0.3845,,396.3206,396.3207,0.177142857,0.055238095,0,0,0,,0,183,183,112,1,,,,
,,,,,,de4ce9491dc5aec2966d826b,66a626ef09d4e21e1a8894ec,6734e028ff74881fa9af6ca2,2024-11-13_18h22.28.850,Tarea de género gramatical,2024.2.2,Win32,59.88023952,,,,,,,,,,,,,,,,,,,,,,,396.3215,397.3391,l,1,[],[],[],[],[],[],[],0.3513,1,397.3392,397.8402,,,,,,1266,MAS,CON,150,riesgo,,l,0.3513,,397.8403,397.8405,0.177142857,0.055238095,0,0,0,,0,184,184,365,1,,,,
,,,,,,de4ce9491dc5aec2966d826b,66a626ef09d4e21e1a8894ec,6734e028ff74881fa9af6ca2,2024-11-13_18h22.28.850,Tarea de género gramatical,2024.2.2,Win32,59.88023952,,,,,,,,,,,,,,,,,,,,,,,397.8415,398.8755,a,1,[],[],[],[],[],[],[],0.3739,1,398.8756,399.3766,,,,,,1196,FEM,AGR,150,feria,la,a,0.3739,,399.3767,399.3769,0.177142857,0.055238095,0,0,0,,0,185,185,295,1,,,,
,,,,,,de4ce9491dc5aec2966d826b,66a626ef09d4e21e1a8894ec,6734e028ff74881fa9af6ca2,2024-11-13_18h22.28.850,Tarea de género gramatical,2024.2.2,Win32,59.88023952,,,,,,,,,,,,,,,,,,,,,,,399.3776,400.5957,a,1,[],[],[],[],[],[],[],0.5515,1,400.5958,401.0965,,,,,,1154,FEM,AGR,150,caída,la,a,0.5515,,401.0976,401.0982,0.177142857,0.055238095,0,0,0,,0,186,186,253,1,,,,
,,,,,,de4ce9491dc5aec2966d826b,66a626ef09d4e21e1a8894ec,6734e028ff74881fa9af6ca2,2024-11-13_18h22.28.850,Tarea de género gramatical,2024.2.2,Win32,59.88023952,,,,,,,,,,,,,,,,,,,,,,,401.0988,402.182,a,1,[],[],[],[],[],[],[],0.4049,1,402.1821,402.683,,,,,,1309,FEM,DIS,150,moneda,el,a,0.4049,,402.6832,402.6834,0.177142857,0.055238095,0,0,0,,0,187,187,408,1,,,,
,,,,,,de4ce9491dc5aec2966d826b,66a626ef09d4e21e1a8894ec,6734e028ff74881fa9af6ca2,2024-11-13_18h22.28.850,Tarea de género gramatical,2024.2.2,Win32,59.88023952,,,,,,,,,,,,,,,,,,,,,,,402.6846,403.7518,a,1,[],[],[],[],[],[],[],0.4008,1,403.7519,404.2527,,,,,,1328,FEM,AGR,150,jugada,la,a,0.4008,,404.2528,404.2531,0.177142857,0.055238095,0,0,0,,0,188,188,427,1,,,,
,,,,,,de4ce9491dc5aec2966d826b,66a626ef09d4e21e1a8894ec,6734e028ff74881fa9af6ca2,2024-11-13_18h22.28.850,Tarea de género gramatical,2024.2.2,Win32,59.88023952,,,,,,,,,,,,,,,,,,,,,,,404.2538,405.3884,l,1,[],[],[],[],[],[],[],0.468,1,405.3885,405.8895,,,,,,1188,MAS,CON,150,grado,,l,0.468,,405.8895,405.8897,0.177142857,0.055238095,0,0,0,,0,189,189,287,1,,,,
,,,,,,de4ce9491dc5aec2966d826b,66a626ef09d4e21e1a8894ec,6734e028ff74881fa9af6ca2,2024-11-13_18h22.28.850,Tarea de género gramatical,2024.2.2,Win32,59.88023952,,,,,,,,,,,,,,,,,,,,,,,405.8905,406.975,a,1,[],[],[],[],[],[],[],0.4181,1,406.9751,407.4761,,,,,,1153,FEM,DIS,150,aldea,el,a,0.4181,,407.4761,407.4764,0.177142857,0.055238095,0,0,0,,0,190,190,252,1,,,,
,,,,,,de4ce9491dc5aec2966d826b,66a626ef09d4e21e1a8894ec,6734e028ff74881fa9af6ca2,2024-11-13_18h22.28.850,Tarea de género gramatical,2024.2.2,Win32,59.88023952,,,,,,,,,,,,,,,,,,,,,,,407.4771,408.6449,l,1,[],[],[],[],[],[],[],0.5014,1,408.645,409.146,,,,,,916,MAS,DIS,150,baño,la,l,0.5014,,409.1469,409.1475,0.177142857,0.055238095,0,0,0,,0,191,191,15,1,,,,
,,,,,,de4ce9491dc5aec2966d826b,66a626ef09d4e21e1a8894ec,6734e028ff74881fa9af6ca2,2024-11-13_18h22.28.850,Tarea de género gramatical,2024.2.2,Win32,59.88023952,,,,,,,,,,,,,,,,,,,,,,,409.1481,410.2315,l,1,[],[],[],[],[],[],[],0.4037,1,410.2315,410.7323,,,,,,1157,MAS,AGR,150,pecho,el,l,0.4037,,410.7324,410.7325,0.177142857,0.055238095,0,0,0,,0,192,192,256,1,,,,
,,,,,,de4ce9491dc5aec2966d826b,66a626ef09d4e21e1a8894ec,6734e028ff74881fa9af6ca2,2024-11-13_18h22.28.850,Tarea de género gramatical,2024.2.2,Win32,59.88023952,,,,,,,,,,,,,,,,,,,,,,,410.7335,411.8344,l,1,[],[],[],[],[],[],[],0.4417,1,411.8345,412.3355,,,,,,1264,MAS,DIS,150,viento,la,l,0.4417,,412.3356,412.3358,0.177142857,0.055238095,0,0,0,,0,193,193,363,1,,,,
,,,,,,de4ce9491dc5aec2966d826b,66a626ef09d4e21e1a8894ec,6734e028ff74881fa9af6ca2,2024-11-13_18h22.28.850,Tarea de género gramatical,2024.2.2,Win32,59.88023952,,,,,,,,,,,,,,,,,,,,,,,412.3369,413.3375,l,1,[],[],[],[],[],[],[],0.3347,1,413.3376,413.8385,,,,,,964,MAS,DIS,150,saco,la,l,0.3347,,413.8386,413.8387,0.177142857,0.055238095,0,0,0,,0,194,194,63,1,,,,
,,,,,,de4ce9491dc5aec2966d826b,66a626ef09d4e21e1a8894ec,6734e028ff74881fa9af6ca2,2024-11-13_18h22.28.850,Tarea de género gramatical,2024.2.2,Win32,59.88023952,,,,,,,,,,,,,,,,,,,,,,,413.8396,415.0242,l,1,[],[],[],[],[],[],[],0.5183,1,415.0243,415.5252,,,,,,1128,MAS,CON,150,nivel,,l,0.5183,,415.5263,415.5272,0.177142857,0.055238095,0,0,0,,0,195,195,227,1,,,,
,,,,,,de4ce9491dc5aec2966d826b,66a626ef09d4e21e1a8894ec,6734e028ff74881fa9af6ca2,2024-11-13_18h22.28.850,Tarea de género gramatical,2024.2.2,Win32,59.88023952,,,,,,,,,,,,,,,,,,,,,,,415.5279,416.6106,l,1,[],[],[],[],[],[],[],0.4011,1,416.6107,417.1118,,,,,,1260,MAS,CON,150,puente,,l,0.4011,,417.1118,417.1119,0.177142857,0.055238095,0,0,0,,0,196,196,359,1,,,,
,,,,,,de4ce9491dc5aec2966d826b,66a626ef09d4e21e1a8894ec,6734e028ff74881fa9af6ca2,2024-11-13_18h22.28.850,Tarea de género gramatical,2024.2.2,Win32,59.88023952,,,,,,,,,,,,,,,,,,,,,,,417.1128,418.097,l,1,[],[],[],[],[],[],[],0.3179,1,418.0971,418.5979,,,,,,1140,MAS,CON,150,ruido,,l,0.3179,,418.598,418.5981,0.177142857,0.055238095,0,0,0,,0,197,197,239,1,,,,
,,,,,,de4ce9491dc5aec2966d826b,66a626ef09d4e21e1a8894ec,6734e028ff74881fa9af6ca2,2024-11-13_18h22.28.850,Tarea de género gramatical,2024.2.2,Win32,59.88023952,,,,,,,,,,,,,,,,,,,,,,,418.5989,419.65,a,1,[],[],[],[],[],[],[],0.385,1,419.6501,420.1509,,,,,,907,FEM,DIS,150,hora,el,a,0.385,,420.151,420.1511,0.177142857,0.055238095,0,0,0,,0,198,198,6,1,,,,
,,,,,,de4ce9491dc5aec2966d826b,66a626ef09d4e21e1a8894ec,6734e028ff74881fa9af6ca2,2024-11-13_18h22.28.850,Tarea de género gramatical,2024.2.2,Win32,59.88023952,,,,,,,,,,,,,,,,,,,,,,,420.152,421.32,a,1,[],[],[],[],[],[],[],0.5029,1,421.3202,421.8209,,,,,,1045,FEM,DIS,150,bota,el,a,0.5029,,421.8209,421.8212,0.177142857,0.055238095,0,0,0,,0,199,199,144,1,,,,
,,,,,,de4ce9491dc5aec2966d826b,66a626ef09d4e21e1a8894ec,6734e028ff74881fa9af6ca2,2024-11-13_18h22.28.850,Tarea de género gramatical,2024.2.2,Win32,59.88023952,,,,,,,,,,,,,,,,,,,,,,,421.8219,422.9733,a,1,[],[],[],[],[],[],[],0.489,1,422.9734,423.4741,,,,,,1267,FEM,DIS,150,teoría,el,a,0.489,,423.4751,423.4759,0.177142857,0.055238095,0,0,0,,0,200,200,366,1,,,,
,,,,,,de4ce9491dc5aec2966d826b,66a626ef09d4e21e1a8894ec,6734e028ff74881fa9af6ca2,2024-11-13_18h22.28.850,Tarea de género gramatical,2024.2.2,Win32,59.88023952,,,,,,,,,,,,,,,,,,,,,,,423.4764,424.5764,l,1,[],[],[],[],[],[],[],0.4191,1,424.5765,425.0776,,,,,,1181,MAS,AGR,150,actor,el,l,0.4191,,425.0776,425.0779,0.177142857,0.055238095,0,0,0,,0,201,201,280,1,,,,
,,,,,,de4ce9491dc5aec2966d826b,66a626ef09d4e21e1a8894ec,6734e028ff74881fa9af6ca2,2024-11-13_18h22.28.850,Tarea de género gramatical,2024.2.2,Win32,59.88023952,,,,,,,,,,,,,,,,,,,,,,,425.0785,426.1296,a,1,[],[],[],[],[],[],[],0.3846,1,426.1297,426.6305,,,,,,1071,FEM,CON,150,mitad,,a,0.3846,,426.6305,426.6308,0.177142857,0.055238095,0,0,0,,0,202,202,170,1,,,,
,,,,,,de4ce9491dc5aec2966d826b,66a626ef09d4e21e1a8894ec,6734e028ff74881fa9af6ca2,2024-11-13_18h22.28.850,Tarea de género gramatical,2024.2.2,Win32,59.88023952,,,,,,,,,,,,,,,,,,,,,,,426.6315,427.6827,l,1,[],[],[],[],[],[],[],0.3844,1,427.6827,428.1836,,,,,,1103,MAS,AGR,150,novio,el,l,0.3844,,428.1836,428.1839,0.177142857,0.055238095,0,0,0,,0,203,203,202,1,,,,
,,,,,,de4ce9491dc5aec2966d826b,66a626ef09d4e21e1a8894ec,6734e028ff74881fa9af6ca2,2024-11-13_18h22.28.850,Tarea de género gramatical,2024.2.2,Win32,59.88023952,,,,,,,,,,,,,,,,,,,,,,,428.1846,429.2357,a,1,[],[],[],[],[],[],[],0.3905,1,429.2359,429.7366,,,,,,1123,FEM,DIS,150,plata,el,a,0.3905,,429.7376,429.7383,0.177142857,0.055238095,0,0,0,,0,204,204,222,1,,,,
,,,,,,de4ce9491dc5aec2966d826b,66a626ef09d4e21e1a8894ec,6734e028ff74881fa9af6ca2,2024-11-13_18h22.28.850,Tarea de género gramatical,2024.2.2,Win32,59.88023952,,,,,,,,,,,,,,,,,,,,,,,429.7389,430.7721,a,1,[],[],[],[],[],[],[],0.3519,1,430.7722,431.2729,,,,,,1317,FEM,CON,150,cabaña,,a,0.3519,,431.273,431.2733,0.177142857,0.055238095,0,0,0,,0,205,205,416,1,,,,
,,,,,,de4ce9491dc5aec2966d826b,66a626ef09d4e21e1a8894ec,6734e028ff74881fa9af6ca2,2024-11-13_18h22.28.850,Tarea de género gramatical,2024.2.2,Win32,59.88023952,,,,,,,,,,,,,,,,,,,,,,,431.2741,432.342,l,1,[],[],[],[],[],[],[],0.4049,1,432.3421,432.8428,,,,,,923,MAS,AGR,150,rato,el,l,0.4049,,432.8428,432.843,0.177142857,0.055238095,0,0,0,,0,206,206,22,1,,,,
,,,,,,de4ce9491dc5aec2966d826b,66a626ef09d4e21e1a8894ec,6734e028ff74881fa9af6ca2,2024-11-13_18h22.28.850,Tarea de género gramatical,2024.2.2,Win32,59.88023952,,,,,,,,,,,,,,,,,,,,,,,432.8438,433.8781,l,1,[],[],[],[],[],[],[],0.3679,1,433.8782,434.3793,,,,,,1211,MAS,AGR,150,camino,el,l,0.3679,,434.3793,434.3795,0.177142857,0.055238095,0,0,0,,0,207,207,310,1,,,,
,,,,,,de4ce9491dc5aec2966d826b,66a626ef09d4e21e1a8894ec,6734e028ff74881fa9af6ca2,2024-11-13_18h22.28.850,Tarea de género gramatical,2024.2.2,Win32,59.88023952,,,,,,,,,,,,,,,,,,,,,,,434.3803,435.3477,l,1,[],[],[],[],[],[],[],0.3012,1,435.3478,435.8487,,,,,,954,MAS,CON,150,humo,,l,0.3012,,435.8488,435.849,0.177142857,0.055238095,0,0,0,,0,208,208,53,1,,,,
,,,,,,de4ce9491dc5aec2966d826b,66a626ef09d4e21e1a8894ec,6734e028ff74881fa9af6ca2,2024-11-13_18h22.28.850,Tarea de género gramatical,2024.2.2,Win32,59.88023952,,,,,,,,,,,,,,,,,,,,,,,435.8498,436.8841,l,1,[],[],[],[],[],[],[],0.3732,1,436.8842,437.3852,,,,,,1110,MAS,CON,150,baile,,l,0.3732,,437.3862,437.3868,0.177142857,0.055238095,0,0,0,,0,209,209,209,1,,,,
,,,,,,de4ce9491dc5aec2966d826b,66a626ef09d4e21e1a8894ec,6734e028ff74881fa9af6ca2,2024-11-13_18h22.28.850,Tarea de género gramatical,2024.2.2,Win32,59.88023952,,,,,,,,,,,,,,,,,,,,,,,437.3873,438.4038,l,1,[],[],[],[],[],[],[],0.3344,1,438.404,438.9048,,,,,,1228,MAS,DIS,150,asunto,la,l,0.3344,,438.9049,438.9051,0.177142857,0.055238095,0,0,0,,0,210,210,327,1,,,,
,,,,,,de4ce9491dc5aec2966d826b,66a626ef09d4e21e1a8894ec,6734e028ff74881fa9af6ca2,2024-11-13_18h22.28.850,Tarea de género gramatical,2024.2.2,Win32,59.88023952,,,,,,,,,,,,,,,,,,,,,,,438.9059,439.9903,a,1,[],[],[],[],[],[],[],0.4178,1,439.9904,440.4914,,,,,,1310,FEM,AGR,150,piedad,la,a,0.4178,,440.4914,440.4915,0.177142857,0.055238095,0,0,0,,0,211,211,409,1,,,,
,,,,,,de4ce9491dc5aec2966d826b,66a626ef09d4e21e1a8894ec,6734e028ff74881fa9af6ca2,2024-11-13_18h22.28.850,Tarea de género gramatical,2024.2.2,Win32,59.88023952,,,,,,,,,,,,,,,,,,,,,,,440.4923,441.7437,a,1,[],[],[],[],[],[],[],0.5885,1,441.7438,442.2448,,,,,,950,FEM,AGR,150,dama,la,a,0.5885,,442.2448,442.2451,0.177142857,0.055238095,0,0,0,,0,212,212,49,1,,,,
,,,,,,de4ce9491dc5aec2966d826b,66a626ef09d4e21e1a8894ec,6734e028ff74881fa9af6ca2,2024-11-13_18h22.28.850,Tarea de género gramatical,2024.2.2,Win32,59.88023952,,,,,,,,,,,,,,,,,,,,,,,442.246,443.347,l,1,[],[],[],[],[],[],[],0.4414,1,443.3472,443.8479,,,,,,1031,MAS,AGR,150,kilo,el,l,0.4414,,443.8489,443.8495,0.177142857,0.055238095,0,0,0,,0,213,213,130,1,,,,
,,,,,,de4ce9491dc5aec2966d826b,66a626ef09d4e21e1a8894ec,6734e028ff74881fa9af6ca2,2024-11-13_18h22.28.850,Tarea de género gramatical,2024.2.2,Win32,59.88023952,,,,,,,,,,,,,,,,,,,,,,,443.8501,444.8666,a,1,[],[],[],[],[],[],[],0.3414,1,444.8667,445.3676,,,,,,1028,FEM,AGR,150,leña,la,a,0.3414,,445.3677,445.3679,0.177142857,0.055238095,0,0,0,,0,214,214,127,1,,,,
,,,,,,de4ce9491dc5aec2966d826b,66a626ef09d4e21e1a8894ec,6734e028ff74881fa9af6ca2,2024-11-13_18h22.28.850,Tarea de género gramatical,2024.2.2,Win32,59.88023952,,,,,,,,,,,,,,,,,,,,,,,445.3687,446.3865,l,1,[],[],[],[],[],[],[],0.3514,1,446.3866,446.8873,,,,,,1265,MAS,AGR,150,código,el,l,0.3514,,446.8873,446.8875,0.177142857,0.055238095,0,0,0,,0,215,215,364,1,,,,
,,,,,,de4ce9491dc5aec2966d826b,66a626ef09d4e21e1a8894ec,6734e028ff74881fa9af6ca2,2024-11-13_18h22.28.850,Tarea de género gramatical,2024.2.2,Win32,59.88023952,,,,,,,,,,,,,,,,,,,,,,,446.8883,448.0063,a,1,[],[],[],[],[],[],[],0.4544,1,448.0064,448.5072,,,,,,1083,FEM,CON,150,llave,,a,0.4544,,448.5073,448.5074,0.177142857,0.055238095,0,0,0,,0,216,216,182,1,,,,
,,,,,,de4ce9491dc5aec2966d826b,66a626ef09d4e21e1a8894ec,6734e028ff74881fa9af6ca2,2024-11-13_18h22.28.850,Tarea de género gramatical,2024.2.2,Win32,59.88023952,,,,,,,,,,,,,,,,,,,,,,,448.5083,449.5761,a,1,[],[],[],[],[],[],[],0.4026,1,449.5762,450.0769,,,,,,1124,FEM,AGR,150,arena,la,a,0.4026,,450.077,450.0772,0.177142857,0.055238095,0,0,0,,0,217,217,223,1,,,,
,,,,,,de4ce9491dc5aec2966d826b,66a626ef09d4e21e1a8894ec,6734e028ff74881fa9af6ca2,2024-11-13_18h22.28.850,Tarea de género gramatical,2024.2.2,Win32,59.88023952,,,,,,,,,,,,,,,,,,,,,,,450.0779,451.1291,a,1,[],[],[],[],[],[],[],0.3846,1,451.1292,451.6299,,,,,,1052,FEM,AGR,150,gente,la,a,0.3846,,451.6312,451.6318,0.177142857,0.055238095,0,0,0,,0,218,218,151,1,,,,
,,,,,,de4ce9491dc5aec2966d826b,66a626ef09d4e21e1a8894ec,6734e028ff74881fa9af6ca2,2024-11-13_18h22.28.850,Tarea de género gramatical,2024.2.2,Win32,59.88023952,,,,,,,,,,,,,,,,,,,,,,,451.6325,452.5819,a,1,[],[],[],[],[],[],[],0.2732,1,452.582,453.0828,,,,,,1178,FEM,AGR,150,presa,la,a,0.2732,,453.0829,453.0831,0.177142857,0.055238095,0,0,0,,0,219,219,277,1,,,,
,,,,,,de4ce9491dc5aec2966d826b,66a626ef09d4e21e1a8894ec,6734e028ff74881fa9af6ca2,2024-11-13_18h22.28.850,Tarea de género gramatical,2024.2.2,Win32,59.88023952,,,,,,,,,,,,,,,,,,,,,,,453.0838,454.0514,a,1,[],[],[],[],[],[],[],0.301,1,454.0516,454.5526,,,,,,1011,FEM,CON,150,goma,,a,0.301,,454.5526,454.5528,0.177142857,0.055238095,0,0,0,,0,220,220,110,1,,,,
,,,,,,de4ce9491dc5aec2966d826b,66a626ef09d4e21e1a8894ec,6734e028ff74881fa9af6ca2,2024-11-13_18h22.28.850,Tarea de género gramatical,2024.2.2,Win32,59.88023952,,,,,,,,,,,,,,,,,,,,,,,454.5535,455.5045,a,1,[],[],[],[],[],[],[],0.2847,1,455.5045,456.0055,,,,,,1021,FEM,DIS,150,pila,el,a,0.2847,,456.0055,456.0057,0.177142857,0.055238095,0,0,0,,0,221,221,120,1,,,,
,,,,,,de4ce9491dc5aec2966d826b,66a626ef09d4e21e1a8894ec,6734e028ff74881fa9af6ca2,2024-11-13_18h22.28.850,Tarea de género gramatical,2024.2.2,Win32,59.88023952,,,,,,,,,,,,,,,,,,,,,,,456.0065,457.1743,l,1,[],[],[],[],[],[],[],0.5016,1,457.1744,457.6752,,,,,,1278,MAS,CON,150,pastel,,l,0.5016,,457.6763,457.677,0.177142857,0.055238095,0,0,0,,0,222,222,377,1,,,,
,,,,,,de4ce9491dc5aec2966d826b,66a626ef09d4e21e1a8894ec,6734e028ff74881fa9af6ca2,2024-11-13_18h22.28.850,Tarea de género gramatical,2024.2.2,Win32,59.88023952,,,,,,,,,,,,,,,,,,,,,,,457.6775,458.6774,a,1,[],[],[],[],[],[],[],0.3218,1,458.6775,459.1784,,,,,,1113,FEM,CON,150,magia,,a,0.3218,,459.1784,459.1786,0.177142857,0.055238095,0,0,0,,0,223,223,212,1,,,,
,,,,,,de4ce9491dc5aec2966d826b,66a626ef09d4e21e1a8894ec,6734e028ff74881fa9af6ca2,2024-11-13_18h22.28.850,Tarea de género gramatical,2024.2.2,Win32,59.88023952,,,,,,,,,,,,,,,,,,,,,,,459.1796,460.2137,a,1,[],[],[],[],[],[],[],0.3717,1,460.2138,460.7146,,,,,,1226,FEM,AGR,150,música,la,a,0.3717,,460.7146,460.7149,0.177142857,0.055238095,0,0,0,,0,224,224,325,1,,,,
,,,,,,de4ce9491dc5aec2966d826b,66a626ef09d4e21e1a8894ec,6734e028ff74881fa9af6ca2,2024-11-13_18h22.28.850,Tarea de género gramatical,2024.2.2,Win32,59.88023952,,,,,,,,,,,,,,,,,,,,,,,460.7157,461.8002,l,0,[],[],[],[],[],[],[],0.4192,0,461.801,462.3012,,,,,,973,FEM,DIS,150,roca,el,a,0.4192,,462.3012,462.3015,0.177142857,0.055238095,0,0,0,,0,225,225,72,1,,,,
,,,,,,de4ce9491dc5aec2966d826b,66a626ef09d4e21e1a8894ec,6734e028ff74881fa9af6ca2,2024-11-13_18h22.28.850,Tarea de género gramatical,2024.2.2,Win32,59.88023952,,,,,,,,,,,,,,,,,,,,,,,462.3024,463.3199,l,1,[],[],[],[],[],[],[],0.3544,1,463.3208,463.8208,,,,,,1132,MAS,DIS,150,calor,la,l,0.3544,,463.8209,463.821,0.177142857,0.055238095,0,0,0,,0,226,226,231,1,,,,
,,,,,,de4ce9491dc5aec2966d826b,66a626ef09d4e21e1a8894ec,6734e028ff74881fa9af6ca2,2024-11-13_18h22.28.850,Tarea de género gramatical,2024.2.2,Win32,59.88023952,,,,,,,,,,,,,,,,,,,,,,,463.822,464.8897,a,1,[],[],[],[],[],[],[],0.4017,1,464.8898,465.3907,,,,,,1057,FEM,DIS,150,madre,el,a,0.4017,,465.3916,465.3924,0.177142857,0.055238095,0,0,0,,0,227,227,156,1,,,,
,,,,,,de4ce9491dc5aec2966d826b,66a626ef09d4e21e1a8894ec,6734e028ff74881fa9af6ca2,2024-11-13_18h22.28.850,Tarea de género gramatical,2024.2.2,Win32,59.88023952,,,,,,,,,,,,,,,,,,,,,,,465.393,466.443,l,1,[],[],[],[],[],[],[],0.3679,1,466.4431,466.9436,,,,,,1145,MAS,AGR,150,turno,el,l,0.3679,,466.9437,466.944,0.177142857,0.055238095,0,0,0,,0,228,228,244,1,,,,
,,,,,,de4ce9491dc5aec2966d826b,66a626ef09d4e21e1a8894ec,6734e028ff74881fa9af6ca2,2024-11-13_18h22.28.850,Tarea de género gramatical,2024.2.2,Win32,59.88023952,,,,,,,,,,,,,,,,,,,,,,,466.9446,467.9457,l,1,[],[],[],[],[],[],[],0.3422,1,467.9458,468.4466,,,,,,918,MAS,CON,150,tren,,l,0.3422,,468.4466,468.4469,0.177142857,0.055238095,0,0,0,,0,229,229,17,1,,,,
,,,,,,de4ce9491dc5aec2966d826b,66a626ef09d4e21e1a8894ec,6734e028ff74881fa9af6ca2,2024-11-13_18h22.28.850,Tarea de género gramatical,2024.2.2,Win32,59.88023952,,,,,,,,,,,,,,,,,,,,,,,468.4476,469.4989,a,1,[],[],[],[],[],[],[],0.3849,1,469.4989,469.9997,,,,,,1088,FEM,AGR,150,bomba,la,a,0.3849,,469.9997,470,0.177142857,0.055238095,0,0,0,,0,230,230,187,1,,,,
,,,,,,de4ce9491dc5aec2966d826b,66a626ef09d4e21e1a8894ec,6734e028ff74881fa9af6ca2,2024-11-13_18h22.28.850,Tarea de género gramatical,2024.2.2,Win32,59.88023952,,,,,,,,,,,,,,,,,,,,,,,470.0007,471.0018,l,1,[],[],[],[],[],[],[],0.3348,1,471.0019,471.5029,,,,,,959,MAS,AGR,150,lobo,el,l,0.3348,,471.5047,471.5063,0.177142857,0.055238095,0,0,0,,0,231,231,58,1,,,,
,,,,,,de4ce9491dc5aec2966d826b,66a626ef09d4e21e1a8894ec,6734e028ff74881fa9af6ca2,2024-11-13_18h22.28.850,Tarea de género gramatical,2024.2.2,Win32,59.88023952,,,,,,,,,,,,,,,,,,,,,,,471.5074,472.5549,l,1,[],[],[],[],[],[],[],0.3679,1,472.555,473.0558,,,,,,1194,MAS,CON,150,cable,,l,0.3679,,473.0558,473.0561,0.177142857,0.055238095,0,0,0,,0,232,232,293,1,,,,
,,,,,,de4ce9491dc5aec2966d826b,66a626ef09d4e21e1a8894ec,6734e028ff74881fa9af6ca2,2024-11-13_18h22.28.850,Tarea de género gramatical,2024.2.2,Win32,59.88023952,,,,,,,,,,,,,,,,,,,,,,,473.0569,474.1247,a,1,[],[],[],[],[],[],[],0.4015,1,474.1249,474.6256,,,,,,1015,FEM,DIS,150,seda,el,a,0.4015,,474.6256,474.6259,0.177142857,0.055238095,0,0,0,,0,233,233,114,1,,,,
,,,,,,de4ce9491dc5aec2966d826b,66a626ef09d4e21e1a8894ec,6734e028ff74881fa9af6ca2,2024-11-13_18h22.28.850,Tarea de género gramatical,2024.2.2,Win32,59.88023952,,,,,,,,,,,,,,,,,,,,,,,474.6266,475.7779,a,1,[],[],[],[],[],[],[],0.4848,1,475.7779,476.2789,,,,,,1243,FEM,DIS,150,trampa,el,a,0.4848,,476.279,476.2792,0.177142857,0.055238095,0,0,0,,0,234,234,342,1,,,,
,,,,,,de4ce9491dc5aec2966d826b,66a626ef09d4e21e1a8894ec,6734e028ff74881fa9af6ca2,2024-11-13_18h22.28.850,Tarea de género gramatical,2024.2.2,Win32,59.88023952,,,,,,,,,,,,,,,,,,,,,,,476.2799,477.1974,l,1,[],[],[],[],[],[],[],0.2509,1,477.1975,477.6986,,,,,,1074,MAS,CON,150,perro,,l,0.2509,,477.6986,477.6987,0.177142857,0.055238095,0,0,0,,0,235,235,173,1,,,,
,,,,,,de4ce9491dc5aec2966d826b,66a626ef09d4e21e1a8894ec,6734e028ff74881fa9af6ca2,2024-11-13_18h22.28.850,Tarea de género gramatical,2024.2.2,Win32,59.88023952,,,,,,,,,,,,,,,,,,,,,,,477.6995,478.7672,a,1,[],[],[],[],[],[],[],0.4034,1,478.7673,479.2681,,,,,,1017,FEM,CON,150,raya,,a,0.4034,,479.269,479.2697,0.177142857,0.055238095,0,0,0,,0,236,236,116,1,,,,
,,,,,,de4ce9491dc5aec2966d826b,66a626ef09d4e21e1a8894ec,6734e028ff74881fa9af6ca2,2024-11-13_18h22.28.850,Tarea de género gramatical,2024.2.2,Win32,59.88023952,,,,,,,,,,,,,,,,,,,,,,,479.2703,480.337,a,1,[],[],[],[],[],[],[],0.3847,1,480.337,480.838,,,,,,1118,FEM,AGR,150,nieve,la,a,0.3847,,480.838,480.8382,0.177142857,0.055238095,0,0,0,,0,237,237,217,1,,,,
,,,,,,de4ce9491dc5aec2966d826b,66a626ef09d4e21e1a8894ec,6734e028ff74881fa9af6ca2,2024-11-13_18h22.28.850,Tarea de género gramatical,2024.2.2,Win32,59.88023952,,,,,,,,,,,,,,,,,,,,,,,480.8391,481.8901,l,1,[],[],[],[],[],[],[],0.3918,1,481.8902,482.391,,,,,,1320,MAS,CON,150,helado,,l,0.3918,,482.3911,482.3913,0.177142857,0.055238095,0,0,0,,0,238,238,419,1,,,,
,,,,,,de4ce9491dc5aec2966d826b,66a626ef09d4e21e1a8894ec,6734e028ff74881fa9af6ca2,2024-11-13_18h22.28.850,Tarea de género gramatical,2024.2.2,Win32,59.88023952,,,,,,,,,,,,,,,,,,,,,,,482.3921,483.5098,l,1,[],[],[],[],[],[],[],0.4548,1,483.5099,484.0108,,,,,,1018,MAS,DIS,150,baúl,la,l,0.4548,,484.0108,484.011,0.177142857,0.055238095,0,0,0,,0,239,239,117,1,,,,
,,,,,,de4ce9491dc5aec2966d826b,66a626ef09d4e21e1a8894ec,6734e028ff74881fa9af6ca2,2024-11-13_18h22.28.850,Tarea de género gramatical,2024.2.2,Win32,59.88023952,,,,,,,,,,,,,,,,,,,,,,,484.012,485.0462,l,1,[],[],[],[],[],[],[],0.3677,1,485.0463,485.5471,,,,,,1342,MAS,DIS,150,cuadro,la,l,0.3677,,485.5481,485.5488,0.177142857,0.055238095,0,0,0,,0,240,240,441,1,,,,
,,,,,,de4ce9491dc5aec2966d826b,66a626ef09d4e21e1a8894ec,6734e028ff74881fa9af6ca2,2024-11-13_18h22.28.850,Tarea de género gramatical,2024.2.2,Win32,59.88023952,,,,,,,,,,,,,,,,,,,,,,,485.5494,486.566,a,1,[],[],[],[],[],[],[],0.3343,1,486.5661,487.067,,,,,,927,FEM,CON,150,mesa,,a,0.3343,,487.067,487.0672,0.177142857,0.055238095,0,0,0,,0,241,241,26,1,,,,
,,,,,,de4ce9491dc5aec2966d826b,66a626ef09d4e21e1a8894ec,6734e028ff74881fa9af6ca2,2024-11-13_18h22.28.850,Tarea de género gramatical,2024.2.2,Win32,59.88023952,,,,,,,,,,,,,,,,,,,,,,,487.0681,488.0688,a,1,[],[],[],[],[],[],[],0.339,1,488.0689,488.57,,,,,,1148,FEM,AGR,150,letra,la,a,0.339,,488.57,488.5702,0.177142857,0.055238095,0,0,0,,0,242,242,247,1,,,,
,,,,,,de4ce9491dc5aec2966d826b,66a626ef09d4e21e1a8894ec,6734e028ff74881fa9af6ca2,2024-11-13_18h22.28.850,Tarea de género gramatical,2024.2.2,Win32,59.88023952,,,,,,,,,,,,,,,,,,,,,,,488.5711,489.5386,a,1,[],[],[],[],[],[],[],0.3077,1,489.5387,490.0394,,,,,,1340,FEM,AGR,150,patada,la,a,0.3077,,490.0394,490.0396,0.177142857,0.055238095,0,0,0,,0,243,243,439,1,,,,
,,,,,,de4ce9491dc5aec2966d826b,66a626ef09d4e21e1a8894ec,6734e028ff74881fa9af6ca2,2024-11-13_18h22.28.850,Tarea de género gramatical,2024.2.2,Win32,59.88023952,,,,,,,,,,,,,,,,,,,,,,,490.0403,491.0248,l,1,[],[],[],[],[],[],[],0.3181,1,491.0249,491.5258,,,,,,1272,MAS,CON,150,delito,,l,0.3181,,491.5258,491.5261,0.177142857,0.055238095,0,0,0,,0,244,244,371,1,,,,
,,,,,,de4ce9491dc5aec2966d826b,66a626ef09d4e21e1a8894ec,6734e028ff74881fa9af6ca2,2024-11-13_18h22.28.850,Tarea de género gramatical,2024.2.2,Win32,59.88023952,,,,,,,,,,,,,,,,,,,,,,,491.527,492.6781,a,1,[],[],[],[],[],[],[],0.4878,1,492.6782,493.1789,,,,,,1274,FEM,AGR,150,herida,la,a,0.4878,,493.1799,493.1807,0.177142857,0.055238095,0,0,0,,0,245,245,373,1,,,,
,,,,,,de4ce9491dc5aec2966d826b,66a626ef09d4e21e1a8894ec,6734e028ff74881fa9af6ca2,2024-11-13_18h22.28.850,Tarea de género gramatical,2024.2.2,Win32,59.88023952,,,,,,,,,,,,,,,,,,,,,,,493.1812,494.1644,a,0,[],[],[],[],[],[],[],0.3062,0,494.1651,494.6653,,,,,,935,MAS,AGR,150,taxi,el,l,0.3062,,494.6653,494.6655,0.177142857,0.055238095,0,0,0,,0,246,246,34,1,,,,
,,,,,,de4ce9491dc5aec2966d826b,66a626ef09d4e21e1a8894ec,6734e028ff74881fa9af6ca2,2024-11-13_18h22.28.850,Tarea de género gramatical,2024.2.2,Win32,59.88023952,,,,,,,,,,,,,,,,,,,,,,,494.6663,495.6673,a,1,[],[],[],[],[],[],[],0.3357,1,495.668,496.1683,,,,,,1321,FEM,DIS,150,novela,el,a,0.3357,,496.1684,496.1685,0.177142857,0.055238095,0,0,0,,0,247,247,420,1,,,,
,,,,,,de4ce9491dc5aec2966d826b,66a626ef09d4e21e1a8894ec,6734e028ff74881fa9af6ca2,2024-11-13_18h22.28.850,Tarea de género gramatical,2024.2.2,Win32,59.88023952,,,,,,,,,,,,,,,,,,,,,,,496.1695,497.1869,l,1,[],[],[],[],[],[],[],0.3509,1,497.1869,497.688,,,,,,953,MAS,AGR,150,vaso,el,l,0.3509,,497.6881,497.6882,0.177142857,0.055238095,0,0,0,,0,248,248,52,1,,,,
,,,,,,de4ce9491dc5aec2966d826b,66a626ef09d4e21e1a8894ec,6734e028ff74881fa9af6ca2,2024-11-13_18h22.28.850,Tarea de género gramatical,2024.2.2,Win32,59.88023952,,,,,,,,,,,,,,,,,,,,,,,497.689,498.9738,l,0,[],[],[],[],[],[],[],0.6216,0,498.9746,499.4749,,,,,,1039,FEM,DIS,150,pipa,el,a,0.6216,,499.4759,499.4766,0.177142857,0.055238095,0,0,0,,0,249,249,138,1,,,,
,,,,,,de4ce9491dc5aec2966d826b,66a626ef09d4e21e1a8894ec,6734e028ff74881fa9af6ca2,2024-11-13_18h22.28.850,Tarea de género gramatical,2024.2.2,Win32,59.88023952,,,,,,,,,,,,,,,,,,,,,,,499.4772,500.5435,l,1,[],[],[],[],[],[],[],0.3844,1,500.5445,501.0445,,,,,,1349,MAS,AGR,150,payaso,el,l,0.3844,,501.0445,501.0447,0.177142857,0.055238095,0,0,0,,0,250,250,448,1,,,,
,,,,,,de4ce9491dc5aec2966d826b,66a626ef09d4e21e1a8894ec,6734e028ff74881fa9af6ca2,2024-11-13_18h22.28.850,Tarea de género gramatical,2024.2.2,Win32,59.88023952,,,,,,,,,,,,,,,,,,,,,,,501.0454,502.0632,a,1,[],[],[],[],[],[],[],0.3528,1,502.0633,502.5643,,,,,,1034,FEM,AGR,150,rama,la,a,0.3528,,502.5643,502.5645,0.177142857,0.055238095,0,0,0,,0,251,251,133,1,,,,
,,,,,,de4ce9491dc5aec2966d826b,66a626ef09d4e21e1a8894ec,6734e028ff74881fa9af6ca2,2024-11-13_18h22.28.850,Tarea de género gramatical,2024.2.2,Win32,59.88023952,,,,,,,,,,,,,,,,,,,,,,,502.5652,503.6496,a,1,[],[],[],[],[],[],[],0.4179,1,503.6497,504.151,,,,,,913,FEM,DIS,150,hija,el,a,0.4179,,504.151,504.1513,0.177142857,0.055238095,0,0,0,,0,252,252,12,1,,,,
