counterbalancing_condition,consent_prescreening.block_1/declare_consent,consent_prescreening.block_1/age_years,consent_prescreening.block_1/gender,consent_prescreening.block_1/language_disorder,consent_prescreening.block_1/first_language,PROLIFIC_PID,STUDY_ID,SESSION_ID,date,expName,psychopyVersion,OS,frameRate,check_prescreening_answers.started,check_prescreening_answers.stopped,Instructions.started,Instructions.stopped,instr_done_keyboard.keys,instr_done_keyboard.rt,instr_done_keyboard.duration,instr_done_touch.x,instr_done_touch.y,instr_done_touch.leftButton,instr_done_touch.midButton,instr_done_touch.rightButton,instruction_pages.thisRepN,instruction_pages.thisTrialN,instruction_pages.thisN,instruction_pages.thisIndex,instruction_pages.ran,pageN,phase,instruct_text,has_image,instruct_image,presentTrial.started,presentTrial.stopped,response.keys,response.corr,touch_resp.x,touch_resp.y,touch_resp.leftButton,touch_resp.midButton,touch_resp.rightButton,touch_resp.time,touch_resp.clicked_name,rt,corr,feedback.started,feedback.stopped,practice_trials.thisRepN,practice_trials.thisTrialN,practice_trials.thisN,practice_trials.thisIndex,practice_trials.ran,TrialID,StimulusType,Condition,PrimeDuration,Prime,Flanker,corrAns,response.rt,response.duration,Break.started,Break.stopped,break_done_touch.x,break_done_touch.y,break_done_touch.leftButton,break_done_touch.midButton,break_done_touch.rightButton,break_done_keyboard.keys,experiment_trials.thisRepN,experiment_trials.thisTrialN,experiment_trials.thisN,experiment_trials.thisIndex,experiment_trials.ran,break_done_keyboard.rt,break_done_keyboard.duration,End.started,End.stopped
2,"[""over_18"",""comfortable"",""read_info"",""consent_given""]",34,F,"[""none""]","[""spanish""]",e19bc1b4e1a15b0f512be9ca,66a626ef09d4e21e1a8894ec,6734a01b51330dc1896f9bfb,2024-11-13_09h48.51.613,Tarea de género gramatical,2024.2.2,MacIntel,63.29113924,,,,,,,,,,,,,,,,,,,,,,,,,,,,,,,,,,,,,,,,,,,,,,,,,,,,,,,,,,,,,,,,,,,,
,,,,,,e19bc1b4e1a15b0f512be9ca,66a626ef09d4e21e1a8894ec,6734a01b51330dc1896f9bfb,2024-11-13_09h48.51.613,Tarea de género gramatical,2024.2.2,MacIntel,63.29113924,32.7275,32.7277,,,,,,,,,,,,,,,,,,,,,,,,,,,,,,,,,,,,,,,,,,,,,,,,,,,,,,,,,,,,,,,,,,
,,,,,,e19bc1b4e1a15b0f512be9ca,66a626ef09d4e21e1a8894ec,6734a01b51330dc1896f9bfb,2024-11-13_09h48.51.613,Tarea de género gramatical,2024.2.2,MacIntel,63.29113924,,,32.7414,41.5533,space,8.7833,,0.013250868,-0.396545139,0,0,0,0,0,0,0,1,1,instructions,"INSTRUCCIONES
Va a realizar una prueba de selección gramatical. Desde el comienzo de la prueba mire siempre al centro de la pantalla. Al cabo de un momento, aparecerán palabras. La tarea consiste en determinar si la palabra del centro (siempre será un sustantivo), pertenece al género masculino o femenino.

Pulse la tecla ESPACIO o toque el botón de abajo para continuar.",0,keyboardresponseMF.png,,,,,,,,,,,,,,,,,,,,,,,,,,,,,,,,,,,,,,,,,,,,,,
,,,,,,e19bc1b4e1a15b0f512be9ca,66a626ef09d4e21e1a8894ec,6734a01b51330dc1896f9bfb,2024-11-13_09h48.51.613,Tarea de género gramatical,2024.2.2,MacIntel,63.29113924,,,41.5552,47.3369,space,5.7376,,0.013250868,-0.396545139,0,0,0,0,1,1,1,1,2,instructions,"Si su dispositivo tiene teclado, pulse la tecla ""A"" para las palabras en masculino (por ejemplo: ""arroz"") y la tecla ""L"" para las palabras en femenino (por ejemplo: ""mano"").
Pulse la tecla ESPACIO o toque el botón de abajo para continuar.",1,keyboardresponseMF.png,,,,,,,,,,,,,,,,,,,,,,,,,,,,,,,,,,,,,,,,,,,,,,
,,,,,,e19bc1b4e1a15b0f512be9ca,66a626ef09d4e21e1a8894ec,6734a01b51330dc1896f9bfb,2024-11-13_09h48.51.613,Tarea de género gramatical,2024.2.2,MacIntel,63.29113924,,,47.3385,59.6695,space,12.3071,,0.013250868,-0.396545139,0,0,0,0,2,2,2,1,3,instructions,"Si utiliza un dispositivo sólo táctil, colóquelo en horizontal y utilice los botones de la pantalla. No utilice el ratón.
Pulse la tecla ESPACIO o toque el botón de abajo para continuar.",2,touchresponseMF.png,,,,,,,,,,,,,,,,,,,,,,,,,,,,,,,,,,,,,,,,,,,,,,
,,,,,,e19bc1b4e1a15b0f512be9ca,66a626ef09d4e21e1a8894ec,6734a01b51330dc1896f9bfb,2024-11-13_09h48.51.613,Tarea de género gramatical,2024.2.2,MacIntel,63.29113924,,,59.6721,66.6024,space,6.9178,,0.013250868,-0.396545139,0,0,0,0,3,3,3,1,4,instructions,"Es muy importante que responda con la mayor rapidez y precisión posibles, ya que cada cadena de letras sólo estará en pantalla durante un instante. Si no responde en ese tiempo, aparecerá el mensaje ""Muy lento"" y el experimento pasará a la siguiente palabra. Los primeros 15 intentos serán de práctica y habrá dos descansos durante la prueba.
Pulse la tecla ESPACIO o toque el botón de abajo para iniciar la parte de práctica.",0,keyboardresponseMF.png,,,,,,,,,,,,,,,,,,,,,,,,,,,,,,,,,,,,,,,,,,,,,,
,,,,,,e19bc1b4e1a15b0f512be9ca,66a626ef09d4e21e1a8894ec,6734a01b51330dc1896f9bfb,2024-11-13_09h48.51.613,Tarea de género gramatical,2024.2.2,MacIntel,63.29113924,,,,,,,,,,,,,,,,,,,,,,,66.6128,69.252,,0,[],[],[],[],[],[],[],,-1,69.2523,69.7526,0,0,0,9,1,2010,MAS,AGR,150,vecino,el,l,,,,,,,,,,,,,,,,,,,
,,,,,,e19bc1b4e1a15b0f512be9ca,66a626ef09d4e21e1a8894ec,6734a01b51330dc1896f9bfb,2024-11-13_09h48.51.613,Tarea de género gramatical,2024.2.2,MacIntel,63.29113924,,,,,,,,,,,,,,,,,,,,,,,69.7539,71.5021,a,1,[],[],[],[],[],[],[],1.0698,1,71.5157,72.0016,0,1,1,12,1,2013,MAS,AGR,150,acero,el,l,1.0698,,,,,,,,,,,,,,,,,,
,,,,,,e19bc1b4e1a15b0f512be9ca,66a626ef09d4e21e1a8894ec,6734a01b51330dc1896f9bfb,2024-11-13_09h48.51.613,Tarea de género gramatical,2024.2.2,MacIntel,63.29113924,,,,,,,,,,,,,,,,,,,,,,,72.002,73.0687,l,0,[],[],[],[],[],[],[],0.3972,0,73.0694,73.5685,0,2,2,10,1,2011,MAS,CON,150,canal,,l,0.3972,,,,,,,,,,,,,,,,,,
,,,,,,e19bc1b4e1a15b0f512be9ca,66a626ef09d4e21e1a8894ec,6734a01b51330dc1896f9bfb,2024-11-13_09h48.51.613,Tarea de género gramatical,2024.2.2,MacIntel,63.29113924,,,,,,,,,,,,,,,,,,,,,,,73.5695,74.8684,l,1,[],[],[],[],[],[],[],0.6262,1,74.869,75.3683,0,3,3,4,1,2005,FEM,CON,150,placa,,a,0.6262,,,,,,,,,,,,,,,,,,
,,,,,,e19bc1b4e1a15b0f512be9ca,66a626ef09d4e21e1a8894ec,6734a01b51330dc1896f9bfb,2024-11-13_09h48.51.613,Tarea de género gramatical,2024.2.2,MacIntel,63.29113924,,,,,,,,,,,,,,,,,,,,,,,75.3691,77.5519,l,0,[],[],[],[],[],[],[],1.5034,0,77.5525,78.0518,0,4,4,8,1,2009,MAS,DIS,150,puerto,la,l,1.5034,,,,,,,,,,,,,,,,,,
,,,,,,e19bc1b4e1a15b0f512be9ca,66a626ef09d4e21e1a8894ec,6734a01b51330dc1896f9bfb,2024-11-13_09h48.51.613,Tarea de género gramatical,2024.2.2,MacIntel,63.29113924,,,,,,,,,,,,,,,,,,,,,,,78.0526,79.5178,a,0,[],[],[],[],[],[],[],0.7837,0,79.5179,80.0175,0,5,5,2,1,2003,FEM,DIS,150,daga,el,a,0.7837,,,,,,,,,,,,,,,,,,
,,,,,,e19bc1b4e1a15b0f512be9ca,66a626ef09d4e21e1a8894ec,6734a01b51330dc1896f9bfb,2024-11-13_09h48.51.613,Tarea de género gramatical,2024.2.2,MacIntel,63.29113924,,,,,,,,,,,,,,,,,,,,,,,80.0182,81.1681,l,1,[],[],[],[],[],[],[],0.4951,1,81.1688,81.6677,0,6,6,3,1,2004,FEM,AGR,150,venta,la,a,0.4951,,,,,,,,,,,,,,,,,,
,,,,,,e19bc1b4e1a15b0f512be9ca,66a626ef09d4e21e1a8894ec,6734a01b51330dc1896f9bfb,2024-11-13_09h48.51.613,Tarea de género gramatical,2024.2.2,MacIntel,63.29113924,,,,,,,,,,,,,,,,,,,,,,,81.6684,82.5847,a,0,[],[],[],[],[],[],[],0.2343,0,82.5852,83.0846,0,7,7,5,1,2006,FEM,DIS,150,serie,el,a,0.2343,,,,,,,,,,,,,,,,,,
,,,,,,e19bc1b4e1a15b0f512be9ca,66a626ef09d4e21e1a8894ec,6734a01b51330dc1896f9bfb,2024-11-13_09h48.51.613,Tarea de género gramatical,2024.2.2,MacIntel,63.29113924,,,,,,,,,,,,,,,,,,,,,,,83.0853,84.4513,l,1,[],[],[],[],[],[],[],0.6922,1,84.4521,84.9515,0,8,8,0,1,2001,FEM,AGR,150,nuca,la,a,0.6922,,,,,,,,,,,,,,,,,,
,,,,,,e19bc1b4e1a15b0f512be9ca,66a626ef09d4e21e1a8894ec,6734a01b51330dc1896f9bfb,2024-11-13_09h48.51.613,Tarea de género gramatical,2024.2.2,MacIntel,63.29113924,,,,,,,,,,,,,,,,,,,,,,,84.9525,85.9503,a,1,[],[],[],[],[],[],[],0.3201,1,85.9504,86.4513,0,9,9,13,1,2014,MAS,CON,150,siglo,,l,0.3201,,,,,,,,,,,,,,,,,,
,,,,,,e19bc1b4e1a15b0f512be9ca,66a626ef09d4e21e1a8894ec,6734a01b51330dc1896f9bfb,2024-11-13_09h48.51.613,Tarea de género gramatical,2024.2.2,MacIntel,63.29113924,,,,,,,,,,,,,,,,,,,,,,,86.4525,87.7011,l,0,[],[],[],[],[],[],[],0.5792,0,87.7017,88.2009,0,10,10,11,1,2012,MAS,DIS,150,clima,la,l,0.5792,,,,,,,,,,,,,,,,,,
,,,,,,e19bc1b4e1a15b0f512be9ca,66a626ef09d4e21e1a8894ec,6734a01b51330dc1896f9bfb,2024-11-13_09h48.51.613,Tarea de género gramatical,2024.2.2,MacIntel,63.29113924,,,,,,,,,,,,,,,,,,,,,,,88.2012,89.967,a,0,[],[],[],[],[],[],[],1.0861,0,89.9671,90.4674,0,11,11,1,1,2002,FEM,CON,150,pala,,a,1.0861,,,,,,,,,,,,,,,,,,
,,,,,,e19bc1b4e1a15b0f512be9ca,66a626ef09d4e21e1a8894ec,6734a01b51330dc1896f9bfb,2024-11-13_09h48.51.613,Tarea de género gramatical,2024.2.2,MacIntel,63.29113924,,,,,,,,,,,,,,,,,,,,,,,90.4679,91.5344,l,0,[],[],[],[],[],[],[],0.3836,0,91.5346,92.0343,0,12,12,14,1,2015,MAS,DIS,150,robot,la,l,0.3836,,,,,,,,,,,,,,,,,,
,,,,,,e19bc1b4e1a15b0f512be9ca,66a626ef09d4e21e1a8894ec,6734a01b51330dc1896f9bfb,2024-11-13_09h48.51.613,Tarea de género gramatical,2024.2.2,MacIntel,63.29113924,,,,,,,,,,,,,,,,,,,,,,,92.0353,93.3335,l,1,[],[],[],[],[],[],[],0.6291,1,93.3343,93.8343,0,13,13,6,1,2007,FEM,AGR,150,navaja,la,a,0.6291,,,,,,,,,,,,,,,,,,
,,,,,,e19bc1b4e1a15b0f512be9ca,66a626ef09d4e21e1a8894ec,6734a01b51330dc1896f9bfb,2024-11-13_09h48.51.613,Tarea de género gramatical,2024.2.2,MacIntel,63.29113924,,,,,,,,,,,,,,,,,,,,,,,93.8357,94.9838,l,1,[],[],[],[],[],[],[],0.4719,1,94.9839,95.4834,0,14,14,7,1,2008,FEM,CON,150,siesta,,a,0.4719,,,,,,,,,,,,,,,,,,
,,,,,,e19bc1b4e1a15b0f512be9ca,66a626ef09d4e21e1a8894ec,6734a01b51330dc1896f9bfb,2024-11-13_09h48.51.613,Tarea de género gramatical,2024.2.2,MacIntel,63.29113924,,,98.7358,108.9,space,10.1545,,0.022222222,-0.361631944,0,0,0,,,,,,,,,,,108.9201,110.1493,l,1,[],[],[],[],[],[],[],0.5505,1,110.1495,110.6498,,,,,,968,FEM,AGR,150,pata,la,a,0.5505,,110.6502,110.6529,0.022222222,-0.361631944,0,0,0,,0,0,0,67,1,,,,
,,,,,,e19bc1b4e1a15b0f512be9ca,66a626ef09d4e21e1a8894ec,6734a01b51330dc1896f9bfb,2024-11-13_09h48.51.613,Tarea de género gramatical,2024.2.2,MacIntel,63.29113924,,,,,,,,,,,,,,,,,,,,,,,110.654,111.8332,a,1,[],[],[],[],[],[],[],0.5045,1,111.8334,112.3331,,,,,,935,MAS,AGR,150,taxi,el,l,0.5045,,112.3331,112.3333,0.022222222,-0.361631944,0,0,0,,0,1,1,34,1,,,,
,,,,,,e19bc1b4e1a15b0f512be9ca,66a626ef09d4e21e1a8894ec,6734a01b51330dc1896f9bfb,2024-11-13_09h48.51.613,Tarea de género gramatical,2024.2.2,MacIntel,63.29113924,,,,,,,,,,,,,,,,,,,,,,,112.3345,113.7997,a,1,[],[],[],[],[],[],[],0.787,1,113.7998,114.2996,,,,,,1344,MAS,CON,150,límite,,l,0.787,,114.3004,114.3009,0.022222222,-0.361631944,0,0,0,,0,2,2,443,1,,,,
,,,,,,e19bc1b4e1a15b0f512be9ca,66a626ef09d4e21e1a8894ec,6734a01b51330dc1896f9bfb,2024-11-13_09h48.51.613,Tarea de género gramatical,2024.2.2,MacIntel,63.29113924,,,,,,,,,,,,,,,,,,,,,,,114.3014,115.8495,l,1,[],[],[],[],[],[],[],0.8792,1,115.8496,116.3495,,,,,,1003,FEM,DIS,150,fama,el,a,0.8792,,116.3495,116.3496,0.022222222,-0.361631944,0,0,0,,0,3,3,102,1,,,,
,,,,,,e19bc1b4e1a15b0f512be9ca,66a626ef09d4e21e1a8894ec,6734a01b51330dc1896f9bfb,2024-11-13_09h48.51.613,Tarea de género gramatical,2024.2.2,MacIntel,63.29113924,,,,,,,,,,,,,,,,,,,,,,,116.3503,118.0494,a,1,[],[],[],[],[],[],[],1.0276,1,118.0495,118.5493,,,,,,1078,MAS,DIS,150,punto,la,l,1.0276,,118.5495,118.5495,0.022222222,-0.361631944,0,0,0,,0,4,4,177,1,,,,
,,,,,,e19bc1b4e1a15b0f512be9ca,66a626ef09d4e21e1a8894ec,6734a01b51330dc1896f9bfb,2024-11-13_09h48.51.613,Tarea de género gramatical,2024.2.2,MacIntel,63.29113924,,,,,,,,,,,,,,,,,,,,,,,118.5502,119.5489,l,1,[],[],[],[],[],[],[],0.3175,1,119.5489,120.0495,,,,,,1237,FEM,DIS,150,escena,el,a,0.3175,,120.0496,120.0498,0.022222222,-0.361631944,0,0,0,,0,5,5,336,1,,,,
,,,,,,e19bc1b4e1a15b0f512be9ca,66a626ef09d4e21e1a8894ec,6734a01b51330dc1896f9bfb,2024-11-13_09h48.51.613,Tarea de género gramatical,2024.2.2,MacIntel,63.29113924,,,,,,,,,,,,,,,,,,,,,,,120.0511,121.566,l,1,[],[],[],[],[],[],[],0.8431,1,121.5661,122.0662,,,,,,1347,FEM,CON,150,lógica,,a,0.8431,,122.0677,122.0687,0.022222222,-0.361631944,0,0,0,,0,6,6,446,1,,,,
,,,,,,e19bc1b4e1a15b0f512be9ca,66a626ef09d4e21e1a8894ec,6734a01b51330dc1896f9bfb,2024-11-13_09h48.51.613,Tarea de género gramatical,2024.2.2,MacIntel,63.29113924,,,,,,,,,,,,,,,,,,,,,,,122.0695,123.1326,a,1,[],[],[],[],[],[],[],0.394,1,123.1327,123.6324,,,,,,952,MAS,DIS,150,lago,la,l,0.394,,123.6324,123.6325,0.022222222,-0.361631944,0,0,0,,0,7,7,51,1,,,,
,,,,,,e19bc1b4e1a15b0f512be9ca,66a626ef09d4e21e1a8894ec,6734a01b51330dc1896f9bfb,2024-11-13_09h48.51.613,Tarea de género gramatical,2024.2.2,MacIntel,63.29113924,,,,,,,,,,,,,,,,,,,,,,,123.6331,125.049,a,1,[],[],[],[],[],[],[],0.7342,1,125.0491,125.5486,,,,,,1204,MAS,DIS,150,tiempo,la,l,0.7342,,125.5488,125.5489,0.022222222,-0.361631944,0,0,0,,0,8,8,303,1,,,,
,,,,,,e19bc1b4e1a15b0f512be9ca,66a626ef09d4e21e1a8894ec,6734a01b51330dc1896f9bfb,2024-11-13_09h48.51.613,Tarea de género gramatical,2024.2.2,MacIntel,63.29113924,,,,,,,,,,,,,,,,,,,,,,,125.5497,126.6489,a,0,[],[],[],[],[],[],[],0.4267,0,126.6499,127.1488,,,,,,1293,FEM,CON,150,alarma,,a,0.4267,,127.1489,127.1491,0.022222222,-0.361631944,0,0,0,,0,9,9,392,1,,,,
,,,,,,e19bc1b4e1a15b0f512be9ca,66a626ef09d4e21e1a8894ec,6734a01b51330dc1896f9bfb,2024-11-13_09h48.51.613,Tarea de género gramatical,2024.2.2,MacIntel,63.29113924,,,,,,,,,,,,,,,,,,,,,,,127.1497,128.6322,a,1,[],[],[],[],[],[],[],0.8103,1,128.6328,129.1321,,,,,,906,MAS,CON,150,lado,,l,0.8103,,129.1322,129.1323,0.022222222,-0.361631944,0,0,0,,0,10,10,5,1,,,,
,,,,,,e19bc1b4e1a15b0f512be9ca,66a626ef09d4e21e1a8894ec,6734a01b51330dc1896f9bfb,2024-11-13_09h48.51.613,Tarea de género gramatical,2024.2.2,MacIntel,63.29113924,,,,,,,,,,,,,,,,,,,,,,,129.133,130.298,a,1,[],[],[],[],[],[],[],0.488,1,130.2982,130.7989,,,,,,972,MAS,CON,150,hoyo,,l,0.488,,130.8003,130.8011,0.022222222,-0.361631944,0,0,0,,0,11,11,71,1,,,,
,,,,,,e19bc1b4e1a15b0f512be9ca,66a626ef09d4e21e1a8894ec,6734a01b51330dc1896f9bfb,2024-11-13_09h48.51.613,Tarea de género gramatical,2024.2.2,MacIntel,63.29113924,,,,,,,,,,,,,,,,,,,,,,,130.8017,131.8491,l,1,[],[],[],[],[],[],[],0.381,1,131.8493,132.3488,,,,,,1033,FEM,DIS,150,joya,el,a,0.381,,132.3489,132.349,0.022222222,-0.361631944,0,0,0,,0,12,12,132,1,,,,
,,,,,,e19bc1b4e1a15b0f512be9ca,66a626ef09d4e21e1a8894ec,6734a01b51330dc1896f9bfb,2024-11-13_09h48.51.613,Tarea de género gramatical,2024.2.2,MacIntel,63.29113924,,,,,,,,,,,,,,,,,,,,,,,132.35,133.3819,l,1,[],[],[],[],[],[],[],0.3512,1,133.3821,133.8821,,,,,,920,FEM,AGR,150,ropa,la,a,0.3512,,133.8821,133.8822,0.022222222,-0.361631944,0,0,0,,0,13,13,19,1,,,,
,,,,,,e19bc1b4e1a15b0f512be9ca,66a626ef09d4e21e1a8894ec,6734a01b51330dc1896f9bfb,2024-11-13_09h48.51.613,Tarea de género gramatical,2024.2.2,MacIntel,63.29113924,,,,,,,,,,,,,,,,,,,,,,,133.883,135.0652,a,1,[],[],[],[],[],[],[],0.5127,1,135.0652,135.5646,,,,,,1200,MAS,CON,150,túnel,,l,0.5127,,135.5646,135.5648,0.022222222,-0.361631944,0,0,0,,0,14,14,299,1,,,,
,,,,,,e19bc1b4e1a15b0f512be9ca,66a626ef09d4e21e1a8894ec,6734a01b51330dc1896f9bfb,2024-11-13_09h48.51.613,Tarea de género gramatical,2024.2.2,MacIntel,63.29113924,,,,,,,,,,,,,,,,,,,,,,,135.5657,136.7815,a,1,[],[],[],[],[],[],[],0.5435,1,136.7816,137.2819,,,,,,1349,MAS,AGR,150,payaso,el,l,0.5435,,137.2834,137.2843,0.022222222,-0.361631944,0,0,0,,0,15,15,448,1,,,,
,,,,,,e19bc1b4e1a15b0f512be9ca,66a626ef09d4e21e1a8894ec,6734a01b51330dc1896f9bfb,2024-11-13_09h48.51.613,Tarea de género gramatical,2024.2.2,MacIntel,63.29113924,,,,,,,,,,,,,,,,,,,,,,,137.2852,138.3642,a,1,[],[],[],[],[],[],[],0.4008,1,138.3642,138.8648,,,,,,1085,MAS,AGR,150,sueño,el,l,0.4008,,138.8648,138.8649,0.022222222,-0.361631944,0,0,0,,0,16,16,184,1,,,,
,,,,,,e19bc1b4e1a15b0f512be9ca,66a626ef09d4e21e1a8894ec,6734a01b51330dc1896f9bfb,2024-11-13_09h48.51.613,Tarea de género gramatical,2024.2.2,MacIntel,63.29113924,,,,,,,,,,,,,,,,,,,,,,,138.8653,139.915,l,1,[],[],[],[],[],[],[],0.3753,1,139.915,140.4148,,,,,,1207,FEM,DIS,150,suerte,el,a,0.3753,,140.4149,140.415,0.022222222,-0.361631944,0,0,0,,0,17,17,306,1,,,,
,,,,,,e19bc1b4e1a15b0f512be9ca,66a626ef09d4e21e1a8894ec,6734a01b51330dc1896f9bfb,2024-11-13_09h48.51.613,Tarea de género gramatical,2024.2.2,MacIntel,63.29113924,,,,,,,,,,,,,,,,,,,,,,,140.4158,141.998,a,1,[],[],[],[],[],[],[],0.9001,1,141.9981,142.4981,,,,,,1109,MAS,AGR,150,banco,el,l,0.9001,,142.4981,142.4983,0.022222222,-0.361631944,0,0,0,,0,18,18,208,1,,,,
,,,,,,e19bc1b4e1a15b0f512be9ca,66a626ef09d4e21e1a8894ec,6734a01b51330dc1896f9bfb,2024-11-13_09h48.51.613,Tarea de género gramatical,2024.2.2,MacIntel,63.29113924,,,,,,,,,,,,,,,,,,,,,,,142.4994,143.4648,l,1,[],[],[],[],[],[],[],0.2947,1,143.4649,143.9641,,,,,,926,FEM,AGR,150,pena,la,a,0.2947,,143.9642,143.9642,0.022222222,-0.361631944,0,0,0,,0,19,19,25,1,,,,
,,,,,,e19bc1b4e1a15b0f512be9ca,66a626ef09d4e21e1a8894ec,6734a01b51330dc1896f9bfb,2024-11-13_09h48.51.613,Tarea de género gramatical,2024.2.2,MacIntel,63.29113924,,,,,,,,,,,,,,,,,,,,,,,143.9649,145.0316,a,1,[],[],[],[],[],[],[],0.4012,1,145.0317,145.5315,,,,,,954,MAS,CON,150,humo,,l,0.4012,,145.533,145.5339,0.022222222,-0.361631944,0,0,0,,0,20,20,53,1,,,,
,,,,,,e19bc1b4e1a15b0f512be9ca,66a626ef09d4e21e1a8894ec,6734a01b51330dc1896f9bfb,2024-11-13_09h48.51.613,Tarea de género gramatical,2024.2.2,MacIntel,63.29113924,,,,,,,,,,,,,,,,,,,,,,,145.5345,146.5979,l,1,[],[],[],[],[],[],[],0.3841,1,146.598,147.0979,,,,,,992,FEM,AGR,150,masa,la,a,0.3841,,147.0979,147.098,0.022222222,-0.361631944,0,0,0,,0,21,21,91,1,,,,
,,,,,,e19bc1b4e1a15b0f512be9ca,66a626ef09d4e21e1a8894ec,6734a01b51330dc1896f9bfb,2024-11-13_09h48.51.613,Tarea de género gramatical,2024.2.2,MacIntel,63.29113924,,,,,,,,,,,,,,,,,,,,,,,147.0986,148.1645,a,1,[],[],[],[],[],[],[],0.3932,1,148.1647,148.6644,,,,,,1198,MAS,DIS,150,botón,la,l,0.3932,,148.6645,148.6647,0.022222222,-0.361631944,0,0,0,,0,22,22,297,1,,,,
,,,,,,e19bc1b4e1a15b0f512be9ca,66a626ef09d4e21e1a8894ec,6734a01b51330dc1896f9bfb,2024-11-13_09h48.51.613,Tarea de género gramatical,2024.2.2,MacIntel,63.29113924,,,,,,,,,,,,,,,,,,,,,,,148.6657,149.8306,l,1,[],[],[],[],[],[],[],0.4959,1,149.8308,150.331,,,,,,913,FEM,DIS,150,hija,el,a,0.4959,,150.331,150.3311,0.022222222,-0.361631944,0,0,0,,0,23,23,12,1,,,,
,,,,,,e19bc1b4e1a15b0f512be9ca,66a626ef09d4e21e1a8894ec,6734a01b51330dc1896f9bfb,2024-11-13_09h48.51.613,Tarea de género gramatical,2024.2.2,MacIntel,63.29113924,,,,,,,,,,,,,,,,,,,,,,,150.332,151.3312,a,1,[],[],[],[],[],[],[],0.3175,1,151.3313,151.831,,,,,,1325,MAS,AGR,150,chiste,el,l,0.3175,,151.832,151.833,0.022222222,-0.361631944,0,0,0,,0,24,24,424,1,,,,
,,,,,,e19bc1b4e1a15b0f512be9ca,66a626ef09d4e21e1a8894ec,6734a01b51330dc1896f9bfb,2024-11-13_09h48.51.613,Tarea de género gramatical,2024.2.2,MacIntel,63.29113924,,,,,,,,,,,,,,,,,,,,,,,151.8337,152.8975,l,1,[],[],[],[],[],[],[],0.3838,1,152.8976,153.3978,,,,,,1111,FEM,DIS,150,salud,el,a,0.3838,,153.3979,153.398,0.022222222,-0.361631944,0,0,0,,0,25,25,210,1,,,,
,,,,,,e19bc1b4e1a15b0f512be9ca,66a626ef09d4e21e1a8894ec,6734a01b51330dc1896f9bfb,2024-11-13_09h48.51.613,Tarea de género gramatical,2024.2.2,MacIntel,63.29113924,,,,,,,,,,,,,,,,,,,,,,,153.399,154.4309,l,1,[],[],[],[],[],[],[],0.3538,1,154.4309,154.931,,,,,,1023,FEM,CON,150,tela,,a,0.3538,,154.931,154.9311,0.022222222,-0.361631944,0,0,0,,0,26,26,122,1,,,,
,,,,,,e19bc1b4e1a15b0f512be9ca,66a626ef09d4e21e1a8894ec,6734a01b51330dc1896f9bfb,2024-11-13_09h48.51.613,Tarea de género gramatical,2024.2.2,MacIntel,63.29113924,,,,,,,,,,,,,,,,,,,,,,,154.9321,155.9636,l,1,[],[],[],[],[],[],[],0.3625,1,155.9636,156.4641,,,,,,963,FEM,CON,150,fila,,a,0.3625,,156.4642,156.4642,0.022222222,-0.361631944,0,0,0,,0,27,27,62,1,,,,
,,,,,,e19bc1b4e1a15b0f512be9ca,66a626ef09d4e21e1a8894ec,6734a01b51330dc1896f9bfb,2024-11-13_09h48.51.613,Tarea de género gramatical,2024.2.2,MacIntel,63.29113924,,,,,,,,,,,,,,,,,,,,,,,156.4652,157.4973,a,1,[],[],[],[],[],[],[],0.3501,1,157.4974,157.9975,,,,,,1151,MAS,AGR,150,dueño,el,l,0.3501,,157.9976,157.9976,0.022222222,-0.361631944,0,0,0,,0,28,28,250,1,,,,
,,,,,,e19bc1b4e1a15b0f512be9ca,66a626ef09d4e21e1a8894ec,6734a01b51330dc1896f9bfb,2024-11-13_09h48.51.613,Tarea de género gramatical,2024.2.2,MacIntel,63.29113924,,,,,,,,,,,,,,,,,,,,,,,157.9987,159.1308,l,1,[],[],[],[],[],[],[],0.4547,1,159.1309,159.6307,,,,,,1286,FEM,AGR,150,sombra,la,a,0.4547,,159.6324,159.6332,0.022222222,-0.361631944,0,0,0,,0,29,29,385,1,,,,
,,,,,,e19bc1b4e1a15b0f512be9ca,66a626ef09d4e21e1a8894ec,6734a01b51330dc1896f9bfb,2024-11-13_09h48.51.613,Tarea de género gramatical,2024.2.2,MacIntel,63.29113924,,,,,,,,,,,,,,,,,,,,,,,159.6338,160.6966,l,1,[],[],[],[],[],[],[],0.3959,1,160.6968,161.1973,,,,,,955,FEM,DIS,150,taza,el,a,0.3959,,161.1973,161.1975,0.022222222,-0.361631944,0,0,0,,0,30,30,54,1,,,,
,,,,,,e19bc1b4e1a15b0f512be9ca,66a626ef09d4e21e1a8894ec,6734a01b51330dc1896f9bfb,2024-11-13_09h48.51.613,Tarea de género gramatical,2024.2.2,MacIntel,63.29113924,,,,,,,,,,,,,,,,,,,,,,,161.1984,162.2804,l,1,[],[],[],[],[],[],[],0.4026,1,162.2805,162.7804,,,,,,1268,FEM,AGR,150,gracia,la,a,0.4026,,162.7805,162.7806,0.022222222,-0.361631944,0,0,0,,0,31,31,367,1,,,,
,,,,,,e19bc1b4e1a15b0f512be9ca,66a626ef09d4e21e1a8894ec,6734a01b51330dc1896f9bfb,2024-11-13_09h48.51.613,Tarea de género gramatical,2024.2.2,MacIntel,63.29113924,,,,,,,,,,,,,,,,,,,,,,,162.7812,163.8129,a,1,[],[],[],[],[],[],[],0.3499,1,163.813,164.3138,,,,,,1150,MAS,DIS,150,cerdo,la,l,0.3499,,164.3139,164.314,0.022222222,-0.361631944,0,0,0,,0,32,32,249,1,,,,
,,,,,,e19bc1b4e1a15b0f512be9ca,66a626ef09d4e21e1a8894ec,6734a01b51330dc1896f9bfb,2024-11-13_09h48.51.613,Tarea de género gramatical,2024.2.2,MacIntel,63.29113924,,,,,,,,,,,,,,,,,,,,,,,164.3146,165.3633,l,0,[],[],[],[],[],[],[],0.3671,0,165.3641,165.8635,,,,,,1026,MAS,CON,150,lazo,,l,0.3671,,165.8643,165.8648,0.022222222,-0.361631944,0,0,0,,0,33,33,125,1,,,,
,,,,,,e19bc1b4e1a15b0f512be9ca,66a626ef09d4e21e1a8894ec,6734a01b51330dc1896f9bfb,2024-11-13_09h48.51.613,Tarea de género gramatical,2024.2.2,MacIntel,63.29113924,,,,,,,,,,,,,,,,,,,,,,,165.8653,167.3301,a,1,[],[],[],[],[],[],[],0.7852,1,167.3307,167.8303,,,,,,1188,MAS,CON,150,grado,,l,0.7852,,167.8304,167.8306,0.022222222,-0.361631944,0,0,0,,0,34,34,287,1,,,,
,,,,,,e19bc1b4e1a15b0f512be9ca,66a626ef09d4e21e1a8894ec,6734a01b51330dc1896f9bfb,2024-11-13_09h48.51.613,Tarea de género gramatical,2024.2.2,MacIntel,63.29113924,,,,,,,,,,,,,,,,,,,,,,,167.8313,169.2803,a,1,[],[],[],[],[],[],[],0.7706,1,169.2804,169.78,,,,,,1222,MAS,DIS,150,minuto,la,l,0.7706,,169.78,169.7801,0.022222222,-0.361631944,0,0,0,,0,35,35,321,1,,,,
,,,,,,e19bc1b4e1a15b0f512be9ca,66a626ef09d4e21e1a8894ec,6734a01b51330dc1896f9bfb,2024-11-13_09h48.51.613,Tarea de género gramatical,2024.2.2,MacIntel,63.29113924,,,,,,,,,,,,,,,,,,,,,,,169.7808,171.2627,a,1,[],[],[],[],[],[],[],0.8104,1,171.2628,171.7634,,,,,,1174,MAS,DIS,150,motor,la,l,0.8104,,171.7635,171.7636,0.022222222,-0.361631944,0,0,0,,0,36,36,273,1,,,,
,,,,,,e19bc1b4e1a15b0f512be9ca,66a626ef09d4e21e1a8894ec,6734a01b51330dc1896f9bfb,2024-11-13_09h48.51.613,Tarea de género gramatical,2024.2.2,MacIntel,63.29113924,,,,,,,,,,,,,,,,,,,,,,,171.7646,172.9466,a,1,[],[],[],[],[],[],[],0.5042,1,172.9468,173.4468,,,,,,1230,MAS,CON,150,estado,,l,0.5042,,173.4469,173.447,0.022222222,-0.361631944,0,0,0,,0,37,37,329,1,,,,
,,,,,,e19bc1b4e1a15b0f512be9ca,66a626ef09d4e21e1a8894ec,6734a01b51330dc1896f9bfb,2024-11-13_09h48.51.613,Tarea de género gramatical,2024.2.2,MacIntel,63.29113924,,,,,,,,,,,,,,,,,,,,,,,173.4481,174.8131,a,1,[],[],[],[],[],[],[],0.6937,1,174.8132,175.3129,,,,,,1060,MAS,DIS,150,señor,la,l,0.6937,,175.3132,175.3135,0.022222222,-0.361631944,0,0,0,,0,38,38,159,1,,,,
,,,,,,e19bc1b4e1a15b0f512be9ca,66a626ef09d4e21e1a8894ec,6734a01b51330dc1896f9bfb,2024-11-13_09h48.51.613,Tarea de género gramatical,2024.2.2,MacIntel,63.29113924,,,,,,,,,,,,,,,,,,,,,,,175.3136,176.5297,a,1,[],[],[],[],[],[],[],0.5343,1,176.5298,177.0296,,,,,,1350,MAS,CON,150,conejo,,l,0.5343,,177.0297,177.0298,0.022222222,-0.361631944,0,0,0,,0,39,39,449,1,,,,
,,,,,,e19bc1b4e1a15b0f512be9ca,66a626ef09d4e21e1a8894ec,6734a01b51330dc1896f9bfb,2024-11-13_09h48.51.613,Tarea de género gramatical,2024.2.2,MacIntel,63.29113924,,,,,,,,,,,,,,,,,,,,,,,177.0305,178.3297,a,1,[],[],[],[],[],[],[],0.6263,1,178.3299,178.8298,,,,,,988,MAS,DIS,150,pavo,la,l,0.6263,,178.8298,178.8299,0.022222222,-0.361631944,0,0,0,,0,40,40,87,1,,,,
,,,,,,e19bc1b4e1a15b0f512be9ca,66a626ef09d4e21e1a8894ec,6734a01b51330dc1896f9bfb,2024-11-13_09h48.51.613,Tarea de género gramatical,2024.2.2,MacIntel,63.29113924,,,,,,,,,,,,,,,,,,,,,,,178.831,179.8795,l,1,[],[],[],[],[],[],[],0.3774,1,179.8796,180.3797,,,,,,1256,FEM,AGR,150,piedra,la,a,0.3774,,180.3797,180.3799,0.022222222,-0.361631944,0,0,0,,0,41,41,355,1,,,,
,,,,,,e19bc1b4e1a15b0f512be9ca,66a626ef09d4e21e1a8894ec,6734a01b51330dc1896f9bfb,2024-11-13_09h48.51.613,Tarea de género gramatical,2024.2.2,MacIntel,63.29113924,,,,,,,,,,,,,,,,,,,,,,,180.3808,181.4462,a,1,[],[],[],[],[],[],[],0.3842,1,181.4463,181.9462,,,,,,966,MAS,CON,150,muro,,l,0.3842,,181.947,181.9475,0.022222222,-0.361631944,0,0,0,,0,42,42,65,1,,,,
,,,,,,e19bc1b4e1a15b0f512be9ca,66a626ef09d4e21e1a8894ec,6734a01b51330dc1896f9bfb,2024-11-13_09h48.51.613,Tarea de género gramatical,2024.2.2,MacIntel,63.29113924,,,,,,,,,,,,,,,,,,,,,,,181.9479,183.046,a,1,[],[],[],[],[],[],[],0.4288,1,183.0461,183.5458,,,,,,1054,MAS,DIS,150,padre,la,l,0.4288,,183.5459,183.546,0.022222222,-0.361631944,0,0,0,,0,43,43,153,1,,,,
,,,,,,e19bc1b4e1a15b0f512be9ca,66a626ef09d4e21e1a8894ec,6734a01b51330dc1896f9bfb,2024-11-13_09h48.51.613,Tarea de género gramatical,2024.2.2,MacIntel,63.29113924,,,,,,,,,,,,,,,,,,,,,,,183.5471,184.6628,a,1,[],[],[],[],[],[],[],0.444,1,184.6629,185.1627,,,,,,929,MAS,AGR,150,frío,el,l,0.444,,185.1628,185.1629,0.022222222,-0.361631944,0,0,0,,0,44,44,28,1,,,,
,,,,,,e19bc1b4e1a15b0f512be9ca,66a626ef09d4e21e1a8894ec,6734a01b51330dc1896f9bfb,2024-11-13_09h48.51.613,Tarea de género gramatical,2024.2.2,MacIntel,63.29113924,,,,,,,,,,,,,,,,,,,,,,,185.1642,186.3793,l,1,[],[],[],[],[],[],[],0.5343,1,186.3794,186.8793,,,,,,1177,FEM,DIS,150,plaza,el,a,0.5343,,186.8793,186.8795,0.022222222,-0.361631944,0,0,0,,0,45,45,276,1,,,,
,,,,,,e19bc1b4e1a15b0f512be9ca,66a626ef09d4e21e1a8894ec,6734a01b51330dc1896f9bfb,2024-11-13_09h48.51.613,Tarea de género gramatical,2024.2.2,MacIntel,63.29113924,,,,,,,,,,,,,,,,,,,,,,,186.8805,187.9959,a,1,[],[],[],[],[],[],[],0.4444,1,187.996,188.4956,,,,,,1020,MAS,CON,150,puño,,l,0.4444,,188.4956,188.4956,0.022222222,-0.361631944,0,0,0,,0,46,46,119,1,,,,
,,,,,,e19bc1b4e1a15b0f512be9ca,66a626ef09d4e21e1a8894ec,6734a01b51330dc1896f9bfb,2024-11-13_09h48.51.613,Tarea de género gramatical,2024.2.2,MacIntel,63.29113924,,,,,,,,,,,,,,,,,,,,,,,188.4963,189.5448,a,1,[],[],[],[],[],[],[],0.3754,1,189.5449,190.0458,,,,,,1061,MAS,AGR,150,chico,el,l,0.3754,,190.0472,190.0481,0.022222222,-0.361631944,0,0,0,,0,47,47,160,1,,,,
,,,,,,e19bc1b4e1a15b0f512be9ca,66a626ef09d4e21e1a8894ec,6734a01b51330dc1896f9bfb,2024-11-13_09h48.51.613,Tarea de género gramatical,2024.2.2,MacIntel,63.29113924,,,,,,,,,,,,,,,,,,,,,,,190.0488,191.1291,a,1,[],[],[],[],[],[],[],0.4124,1,191.1293,191.6282,,,,,,1229,MAS,AGR,150,futuro,el,l,0.4124,,191.6282,191.6283,0.022222222,-0.361631944,0,0,0,,0,48,48,328,1,,,,
,,,,,,e19bc1b4e1a15b0f512be9ca,66a626ef09d4e21e1a8894ec,6734a01b51330dc1896f9bfb,2024-11-13_09h48.51.613,Tarea de género gramatical,2024.2.2,MacIntel,63.29113924,,,,,,,,,,,,,,,,,,,,,,,191.6289,192.8788,a,1,[],[],[],[],[],[],[],0.5787,1,192.8789,193.3789,,,,,,1084,MAS,DIS,150,cielo,la,l,0.5787,,193.379,193.379,0.022222222,-0.361631944,0,0,0,,0,49,49,183,1,,,,
,,,,,,e19bc1b4e1a15b0f512be9ca,66a626ef09d4e21e1a8894ec,6734a01b51330dc1896f9bfb,2024-11-13_09h48.51.613,Tarea de género gramatical,2024.2.2,MacIntel,63.29113924,,,,,,,,,,,,,,,,,,,,,,,193.3796,194.479,a,0,[],[],[],[],[],[],[],0.4222,0,194.4799,194.9788,,,,,,1334,FEM,AGR,150,corona,la,a,0.4222,,194.9788,194.9789,0.022222222,-0.361631944,0,0,0,,0,50,50,433,1,,,,
,,,,,,e19bc1b4e1a15b0f512be9ca,66a626ef09d4e21e1a8894ec,6734a01b51330dc1896f9bfb,2024-11-13_09h48.51.613,Tarea de género gramatical,2024.2.2,MacIntel,63.29113924,,,,,,,,,,,,,,,,,,,,,,,194.9795,196.212,a,1,[],[],[],[],[],[],[],0.56,1,196.2126,196.7118,,,,,,965,MAS,AGR,150,rayo,el,l,0.56,,196.7122,196.7124,0.022222222,-0.361631944,0,0,0,,0,51,51,64,1,,,,
,,,,,,e19bc1b4e1a15b0f512be9ca,66a626ef09d4e21e1a8894ec,6734a01b51330dc1896f9bfb,2024-11-13_09h48.51.613,Tarea de género gramatical,2024.2.2,MacIntel,63.29113924,,,,,,,,,,,,,,,,,,,,,,,196.7126,197.8955,l,1,[],[],[],[],[],[],[],0.5115,1,197.8956,198.3949,,,,,,1035,FEM,CON,150,raíz,,a,0.5115,,198.3949,198.3949,0.022222222,-0.361631944,0,0,0,,0,52,52,134,1,,,,
,,,,,,e19bc1b4e1a15b0f512be9ca,66a626ef09d4e21e1a8894ec,6734a01b51330dc1896f9bfb,2024-11-13_09h48.51.613,Tarea de género gramatical,2024.2.2,MacIntel,63.29113924,,,,,,,,,,,,,,,,,,,,,,,198.3956,199.5786,a,1,[],[],[],[],[],[],[],0.5265,1,199.5787,200.0787,,,,,,1056,MAS,CON,150,amigo,,l,0.5265,,200.0787,200.0788,0.022222222,-0.361631944,0,0,0,,0,53,53,155,1,,,,
,,,,,,e19bc1b4e1a15b0f512be9ca,66a626ef09d4e21e1a8894ec,6734a01b51330dc1896f9bfb,2024-11-13_09h48.51.613,Tarea de género gramatical,2024.2.2,MacIntel,63.29113924,,,,,,,,,,,,,,,,,,,,,,,200.0799,201.0782,l,1,[],[],[],[],[],[],[],0.3191,1,201.0783,201.5785,,,,,,974,FEM,AGR,150,flor,la,a,0.3191,,201.5785,201.5786,0.022222222,-0.361631944,0,0,0,,0,54,54,73,1,,,,
,,,,,,e19bc1b4e1a15b0f512be9ca,66a626ef09d4e21e1a8894ec,6734a01b51330dc1896f9bfb,2024-11-13_09h48.51.613,Tarea de género gramatical,2024.2.2,MacIntel,63.29113924,,,,,,,,,,,,,,,,,,,,,,,201.5796,202.6784,l,1,[],[],[],[],[],[],[],0.4246,1,202.6784,203.1783,,,,,,1275,FEM,CON,150,cadena,,a,0.4246,,203.1784,203.1785,0.022222222,-0.361631944,0,0,0,,0,55,55,374,1,,,,
,,,,,,e19bc1b4e1a15b0f512be9ca,66a626ef09d4e21e1a8894ec,6734a01b51330dc1896f9bfb,2024-11-13_09h48.51.613,Tarea de género gramatical,2024.2.2,MacIntel,63.29113924,,,,,,,,,,,,,,,,,,,,,,,203.1796,204.1279,a,1,[],[],[],[],[],[],[],0.2774,1,204.128,204.6281,,,,,,1211,MAS,AGR,150,camino,el,l,0.2774,,204.6291,204.6299,0.022222222,-0.361631944,0,0,0,,0,56,56,310,1,,,,
,,,,,,e19bc1b4e1a15b0f512be9ca,66a626ef09d4e21e1a8894ec,6734a01b51330dc1896f9bfb,2024-11-13_09h48.51.613,Tarea de género gramatical,2024.2.2,MacIntel,63.29113924,,,,,,,,,,,,,,,,,,,,,,,204.6307,205.7949,l,1,[],[],[],[],[],[],[],0.4939,1,205.795,206.2942,,,,,,1052,FEM,AGR,150,gente,la,a,0.4939,,206.2942,206.2944,0.022222222,-0.361631944,0,0,0,,0,57,57,151,1,,,,
,,,,,,e19bc1b4e1a15b0f512be9ca,66a626ef09d4e21e1a8894ec,6734a01b51330dc1896f9bfb,2024-11-13_09h48.51.613,Tarea de género gramatical,2024.2.2,MacIntel,63.29113924,,,,,,,,,,,,,,,,,,,,,,,206.2952,207.3117,a,1,[],[],[],[],[],[],[],0.3461,1,207.3118,207.8117,,,,,,917,MAS,AGR,150,modo,el,l,0.3461,,207.8117,207.8118,0.022222222,-0.361631944,0,0,0,,0,58,58,16,1,,,,
,,,,,,e19bc1b4e1a15b0f512be9ca,66a626ef09d4e21e1a8894ec,6734a01b51330dc1896f9bfb,2024-11-13_09h48.51.613,Tarea de género gramatical,2024.2.2,MacIntel,63.29113924,,,,,,,,,,,,,,,,,,,,,,,207.8131,208.8617,l,1,[],[],[],[],[],[],[],0.3672,1,208.8619,209.3615,,,,,,1251,FEM,CON,150,espada,,a,0.3672,,209.3616,209.3617,0.022222222,-0.361631944,0,0,0,,0,59,59,350,1,,,,
,,,,,,e19bc1b4e1a15b0f512be9ca,66a626ef09d4e21e1a8894ec,6734a01b51330dc1896f9bfb,2024-11-13_09h48.51.613,Tarea de género gramatical,2024.2.2,MacIntel,63.29113924,,,,,,,,,,,,,,,,,,,,,,,209.3628,210.3784,l,1,[],[],[],[],[],[],[],0.3367,1,210.3785,210.878,,,,,,1292,FEM,AGR,150,maleta,la,a,0.3367,,210.8788,210.8793,0.022222222,-0.361631944,0,0,0,,0,60,60,391,1,,,,
,,,,,,e19bc1b4e1a15b0f512be9ca,66a626ef09d4e21e1a8894ec,6734a01b51330dc1896f9bfb,2024-11-13_09h48.51.613,Tarea de género gramatical,2024.2.2,MacIntel,63.29113924,,,,,,,,,,,,,,,,,,,,,,,210.8797,211.8279,l,1,[],[],[],[],[],[],[],0.2773,1,211.828,212.328,,,,,,1315,FEM,DIS,150,cabina,el,a,0.2773,,212.3281,212.3282,0.022222222,-0.361631944,0,0,0,,0,61,61,414,1,,,,
,,,,,,e19bc1b4e1a15b0f512be9ca,66a626ef09d4e21e1a8894ec,6734a01b51330dc1896f9bfb,2024-11-13_09h48.51.613,Tarea de género gramatical,2024.2.2,MacIntel,63.29113924,,,,,,,,,,,,,,,,,,,,,,,212.3287,213.5114,l,1,[],[],[],[],[],[],[],0.5117,1,213.5114,214.0113,,,,,,981,FEM,CON,150,cima,,a,0.5117,,214.0114,214.0115,0.022222222,-0.361631944,0,0,0,,0,62,62,80,1,,,,
,,,,,,e19bc1b4e1a15b0f512be9ca,66a626ef09d4e21e1a8894ec,6734a01b51330dc1896f9bfb,2024-11-13_09h48.51.613,Tarea de género gramatical,2024.2.2,MacIntel,63.29113924,,,,,,,,,,,,,,,,,,,,,,,214.0125,215.0112,l,1,[],[],[],[],[],[],[],0.316,1,215.0114,215.5112,,,,,,1341,FEM,CON,150,medida,,a,0.316,,215.5112,215.5113,0.022222222,-0.361631944,0,0,0,,0,63,63,440,1,,,,
,,,,,,e19bc1b4e1a15b0f512be9ca,66a626ef09d4e21e1a8894ec,6734a01b51330dc1896f9bfb,2024-11-13_09h48.51.613,Tarea de género gramatical,2024.2.2,MacIntel,63.29113924,,,,,,,,,,,,,,,,,,,,,,,215.5121,216.5601,a,1,[],[],[],[],[],[],[],0.3775,1,216.5602,217.0611,,,,,,1336,MAS,DIS,150,objeto,la,l,0.3775,,217.0611,217.0611,0.022222222,-0.361631944,0,0,0,,0,64,64,435,1,,,,
,,,,,,e19bc1b4e1a15b0f512be9ca,66a626ef09d4e21e1a8894ec,6734a01b51330dc1896f9bfb,2024-11-13_09h48.51.613,Tarea de género gramatical,2024.2.2,MacIntel,63.29113924,,,,,,,,,,,,,,,,,,,,,,,217.0618,218.1278,l,1,[],[],[],[],[],[],[],0.3846,1,218.1279,218.6268,,,,,,1136,FEM,AGR,150,deuda,la,a,0.3846,,218.6276,218.6282,0.022222222,-0.361631944,0,0,0,,0,65,65,235,1,,,,
,,,,,,e19bc1b4e1a15b0f512be9ca,66a626ef09d4e21e1a8894ec,6734a01b51330dc1896f9bfb,2024-11-13_09h48.51.613,Tarea de género gramatical,2024.2.2,MacIntel,63.29113924,,,,,,,,,,,,,,,,,,,,,,,218.6285,219.5942,l,1,[],[],[],[],[],[],[],0.2845,1,219.5944,220.0943,,,,,,1161,FEM,CON,150,cueva,,a,0.2845,,220.0944,220.0945,0.022222222,-0.361631944,0,0,0,,0,66,66,260,1,,,,
,,,,,,e19bc1b4e1a15b0f512be9ca,66a626ef09d4e21e1a8894ec,6734a01b51330dc1896f9bfb,2024-11-13_09h48.51.613,Tarea de género gramatical,2024.2.2,MacIntel,63.29113924,,,,,,,,,,,,,,,,,,,,,,,220.0951,221.1942,a,1,[],[],[],[],[],[],[],0.4267,1,221.1943,221.6933,,,,,,1086,MAS,CON,150,error,,l,0.4267,,221.6934,221.6936,0.022222222,-0.361631944,0,0,0,,0,67,67,185,1,,,,
,,,,,,e19bc1b4e1a15b0f512be9ca,66a626ef09d4e21e1a8894ec,6734a01b51330dc1896f9bfb,2024-11-13_09h48.51.613,Tarea de género gramatical,2024.2.2,MacIntel,63.29113924,,,,,,,,,,,,,,,,,,,,,,,221.6945,222.7266,l,1,[],[],[],[],[],[],[],0.3707,1,222.7266,223.2265,,,,,,1112,FEM,AGR,150,cinta,la,a,0.3707,,223.2266,223.2267,0.022222222,-0.361631944,0,0,0,,0,68,68,211,1,,,,
,,,,,,e19bc1b4e1a15b0f512be9ca,66a626ef09d4e21e1a8894ec,6734a01b51330dc1896f9bfb,2024-11-13_09h48.51.613,Tarea de género gramatical,2024.2.2,MacIntel,63.29113924,,,,,,,,,,,,,,,,,,,,,,,223.2273,224.5441,a,1,[],[],[],[],[],[],[],0.6641,1,224.5442,225.0441,,,,,,1138,MAS,DIS,150,norte,la,l,0.6641,,225.0448,225.0453,0.022222222,-0.361631944,0,0,0,,0,69,69,237,1,,,,
,,,,,,e19bc1b4e1a15b0f512be9ca,66a626ef09d4e21e1a8894ec,6734a01b51330dc1896f9bfb,2024-11-13_09h48.51.613,Tarea de género gramatical,2024.2.2,MacIntel,63.29113924,,,,,,,,,,,,,,,,,,,,,,,225.0459,226.2097,a,1,[],[],[],[],[],[],[],0.4942,1,226.2098,226.7104,,,,,,1139,MAS,AGR,150,reloj,el,l,0.4942,,226.7106,226.7106,0.022222222,-0.361631944,0,0,0,,0,70,70,238,1,,,,
,,,,,,e19bc1b4e1a15b0f512be9ca,66a626ef09d4e21e1a8894ec,6734a01b51330dc1896f9bfb,2024-11-13_09h48.51.613,Tarea de género gramatical,2024.2.2,MacIntel,63.29113924,,,,,,,,,,,,,,,,,,,,,,,226.7112,227.9771,l,1,[],[],[],[],[],[],[],0.5928,1,227.9772,228.4773,,,,,,1203,FEM,CON,150,maldad,,a,0.5928,,228.4774,228.4775,0.022222222,-0.361631944,0,0,0,,0,71,71,302,1,,,,
,,,,,,e19bc1b4e1a15b0f512be9ca,66a626ef09d4e21e1a8894ec,6734a01b51330dc1896f9bfb,2024-11-13_09h48.51.613,Tarea de género gramatical,2024.2.2,MacIntel,63.29113924,,,,,,,,,,,,,,,,,,,,,,,228.4782,229.5606,l,1,[],[],[],[],[],[],[],0.3999,1,229.5607,230.0606,,,,,,939,FEM,CON,150,luna,,a,0.3999,,230.0607,230.0609,0.022222222,-0.361631944,0,0,0,,0,72,72,38,1,,,,
,,,,,,e19bc1b4e1a15b0f512be9ca,66a626ef09d4e21e1a8894ec,6734a01b51330dc1896f9bfb,2024-11-13_09h48.51.613,Tarea de género gramatical,2024.2.2,MacIntel,63.29113924,,,,,,,,,,,,,,,,,,,,,,,230.0618,231.127,a,1,[],[],[],[],[],[],[],0.3956,1,231.127,231.626,,,,,,1096,MAS,DIS,150,barco,la,l,0.3956,,231.626,231.6261,0.022222222,-0.361631944,0,0,0,,0,73,73,195,1,,,,
,,,,,,e19bc1b4e1a15b0f512be9ca,66a626ef09d4e21e1a8894ec,6734a01b51330dc1896f9bfb,2024-11-13_09h48.51.613,Tarea de género gramatical,2024.2.2,MacIntel,63.29113924,,,,,,,,,,,,,,,,,,,,,,,231.6268,232.7269,l,1,[],[],[],[],[],[],[],0.4452,1,232.727,233.2268,,,,,,1166,FEM,AGR,150,jaula,la,a,0.4452,,233.2276,233.2281,0.022222222,-0.361631944,0,0,0,,0,74,74,265,1,,,,
,,,,,,e19bc1b4e1a15b0f512be9ca,66a626ef09d4e21e1a8894ec,6734a01b51330dc1896f9bfb,2024-11-13_09h48.51.613,Tarea de género gramatical,2024.2.2,MacIntel,63.29113924,,,,,,,,,,,,,,,,,,,,,,,233.2286,234.3436,l,1,[],[],[],[],[],[],[],0.4435,1,234.3437,234.8436,,,,,,1041,FEM,CON,150,cera,,a,0.4435,,234.8436,234.8437,0.022222222,-0.361631944,0,0,0,,0,75,75,140,1,,,,
,,,,,,e19bc1b4e1a15b0f512be9ca,66a626ef09d4e21e1a8894ec,6734a01b51330dc1896f9bfb,2024-11-13_09h48.51.613,Tarea de género gramatical,2024.2.2,MacIntel,63.29113924,,,,,,,,,,,,,,,,,,,,,,,234.8443,235.8593,a,1,[],[],[],[],[],[],[],0.3336,1,235.8594,236.3603,,,,,,918,MAS,CON,150,tren,,l,0.3336,,236.3604,236.3605,0.022222222,-0.361631944,0,0,0,,0,76,76,17,1,,,,
,,,,,,e19bc1b4e1a15b0f512be9ca,66a626ef09d4e21e1a8894ec,6734a01b51330dc1896f9bfb,2024-11-13_09h48.51.613,Tarea de género gramatical,2024.2.2,MacIntel,63.29113924,,,,,,,,,,,,,,,,,,,,,,,236.3611,237.3601,l,1,[],[],[],[],[],[],[],0.3282,1,237.3602,237.86,,,,,,1046,FEM,AGR,150,lana,la,a,0.3282,,237.8601,237.8601,0.022222222,-0.361631944,0,0,0,,0,77,77,145,1,,,,
,,,,,,e19bc1b4e1a15b0f512be9ca,66a626ef09d4e21e1a8894ec,6734a01b51330dc1896f9bfb,2024-11-13_09h48.51.613,Tarea de género gramatical,2024.2.2,MacIntel,63.29113924,,,,,,,,,,,,,,,,,,,,,,,237.8608,238.8926,a,1,[],[],[],[],[],[],[],0.3637,1,238.8927,239.3933,,,,,,928,MAS,DIS,150,club,la,l,0.3637,,239.394,239.3947,0.022222222,-0.361631944,0,0,0,,0,78,78,27,1,,,,
,,,,,,e19bc1b4e1a15b0f512be9ca,66a626ef09d4e21e1a8894ec,6734a01b51330dc1896f9bfb,2024-11-13_09h48.51.613,Tarea de género gramatical,2024.2.2,MacIntel,63.29113924,,,,,,,,,,,,,,,,,,,,,,,239.3953,240.4757,l,1,[],[],[],[],[],[],[],0.4006,1,240.4757,240.9762,,,,,,1323,FEM,CON,150,poesía,,a,0.4006,,240.9763,240.9763,0.022222222,-0.361631944,0,0,0,,0,79,79,422,1,,,,
,,,,,,e19bc1b4e1a15b0f512be9ca,66a626ef09d4e21e1a8894ec,6734a01b51330dc1896f9bfb,2024-11-13_09h48.51.613,Tarea de género gramatical,2024.2.2,MacIntel,63.29113924,,,,,,,,,,,,,,,,,,,,,,,240.9769,242.0089,l,1,[],[],[],[],[],[],[],0.362,1,242.0091,242.5097,,,,,,1083,FEM,CON,150,llave,,a,0.362,,242.5098,242.5099,0.022222222,-0.361631944,0,0,0,,0,80,80,182,1,,,,
,,,,,,e19bc1b4e1a15b0f512be9ca,66a626ef09d4e21e1a8894ec,6734a01b51330dc1896f9bfb,2024-11-13_09h48.51.613,Tarea de género gramatical,2024.2.2,MacIntel,63.29113924,,,,,,,,,,,,,,,,,,,,,,,242.5105,243.5765,a,1,[],[],[],[],[],[],[],0.3981,1,243.5765,244.0764,,,,,,1000,MAS,DIS,150,nido,la,l,0.3981,,244.0764,244.0764,0.022222222,-0.361631944,0,0,0,,0,81,81,99,1,,,,
,,,,,,e19bc1b4e1a15b0f512be9ca,66a626ef09d4e21e1a8894ec,6734a01b51330dc1896f9bfb,2024-11-13_09h48.51.613,Tarea de género gramatical,2024.2.2,MacIntel,63.29113924,,,,,,,,,,,,,,,,,,,,,,,244.0771,245.3597,a,1,[],[],[],[],[],[],[],0.6035,1,245.3597,245.8597,,,,,,912,MAS,CON,150,plan,,l,0.6035,,245.8598,245.8598,0.022222222,-0.361631944,0,0,0,,0,82,82,11,1,,,,
,,,,,,e19bc1b4e1a15b0f512be9ca,66a626ef09d4e21e1a8894ec,6734a01b51330dc1896f9bfb,2024-11-13_09h48.51.613,Tarea de género gramatical,2024.2.2,MacIntel,63.29113924,,,,,,,,,,,,,,,,,,,,,,,245.8605,246.8254,l,1,[],[],[],[],[],[],[],0.2852,1,246.8256,247.3263,,,,,,1189,FEM,DIS,150,tabla,el,a,0.2852,,247.3271,247.3275,0.022222222,-0.361631944,0,0,0,,0,83,83,288,1,,,,
,,,,,,e19bc1b4e1a15b0f512be9ca,66a626ef09d4e21e1a8894ec,6734a01b51330dc1896f9bfb,2024-11-13_09h48.51.613,Tarea de género gramatical,2024.2.2,MacIntel,63.29113924,,,,,,,,,,,,,,,,,,,,,,,247.3281,248.4764,l,1,[],[],[],[],[],[],[],0.4804,1,248.4765,248.9761,,,,,,902,FEM,AGR,150,vida,la,a,0.4804,,248.9761,248.9762,0.022222222,-0.361631944,0,0,0,,0,84,84,1,1,,,,
,,,,,,e19bc1b4e1a15b0f512be9ca,66a626ef09d4e21e1a8894ec,6734a01b51330dc1896f9bfb,2024-11-13_09h48.51.613,Tarea de género gramatical,2024.2.2,MacIntel,63.29113924,,,,,,,,,,,,,,,,,,,,,,,248.9769,250.076,l,1,[],[],[],[],[],[],[],0.4181,1,250.076,250.5762,,,,,,1311,FEM,CON,150,actriz,,a,0.4181,,250.5762,250.5763,0.022222222,-0.361631944,0,0,0,,0,85,85,410,1,,,,
,,,,,,e19bc1b4e1a15b0f512be9ca,66a626ef09d4e21e1a8894ec,6734a01b51330dc1896f9bfb,2024-11-13_09h48.51.613,Tarea de género gramatical,2024.2.2,MacIntel,63.29113924,,,,,,,,,,,,,,,,,,,,,,,250.5772,251.6919,a,0,[],[],[],[],[],[],[],0.4383,0,251.6927,252.1929,,,,,,1183,FEM,DIS,150,pluma,el,a,0.4383,,252.193,252.193,0.022222222,-0.361631944,0,0,0,,0,86,86,282,1,,,,
,,,,,,e19bc1b4e1a15b0f512be9ca,66a626ef09d4e21e1a8894ec,6734a01b51330dc1896f9bfb,2024-11-13_09h48.51.613,Tarea de género gramatical,2024.2.2,MacIntel,63.29113924,,,,,,,,,,,,,,,,,,,,,,,252.1947,253.4589,l,1,[],[],[],[],[],[],[],0.5849,1,253.4594,253.9592,,,,,,1190,FEM,AGR,150,cabra,la,a,0.5849,,253.96,253.9604,0.022222222,-0.361631944,0,0,0,,0,87,87,289,1,,,,
,,,,,,e19bc1b4e1a15b0f512be9ca,66a626ef09d4e21e1a8894ec,6734a01b51330dc1896f9bfb,2024-11-13_09h48.51.613,Tarea de género gramatical,2024.2.2,MacIntel,63.29113924,,,,,,,,,,,,,,,,,,,,,,,253.9609,255.075,l,1,[],[],[],[],[],[],[],0.4345,1,255.0751,255.5751,,,,,,1088,FEM,AGR,150,bomba,la,a,0.4345,,255.5751,255.5752,0.022222222,-0.361631944,0,0,0,,0,88,88,187,1,,,,
,,,,,,e19bc1b4e1a15b0f512be9ca,66a626ef09d4e21e1a8894ec,6734a01b51330dc1896f9bfb,2024-11-13_09h48.51.613,Tarea de género gramatical,2024.2.2,MacIntel,63.29113924,,,,,,,,,,,,,,,,,,,,,,,255.5758,256.9248,l,1,[],[],[],[],[],[],[],0.6927,1,256.9248,257.4254,,,,,,907,FEM,DIS,150,hora,el,a,0.6927,,257.4254,257.4255,0.022222222,-0.361631944,0,0,0,,0,89,89,6,1,,,,
,,,,,,e19bc1b4e1a15b0f512be9ca,66a626ef09d4e21e1a8894ec,6734a01b51330dc1896f9bfb,2024-11-13_09h48.51.613,Tarea de género gramatical,2024.2.2,MacIntel,63.29113924,,,,,,,,,,,,,,,,,,,,,,,257.4262,258.6926,l,1,[],[],[],[],[],[],[],0.5942,1,258.6927,259.1926,,,,,,1267,FEM,DIS,150,teoría,el,a,0.5942,,259.1926,259.1927,0.022222222,-0.361631944,0,0,0,,0,90,90,366,1,,,,
,,,,,,e19bc1b4e1a15b0f512be9ca,66a626ef09d4e21e1a8894ec,6734a01b51330dc1896f9bfb,2024-11-13_09h48.51.613,Tarea de género gramatical,2024.2.2,MacIntel,63.29113924,,,,,,,,,,,,,,,,,,,,,,,259.1938,260.4425,a,0,[],[],[],[],[],[],[],0.5661,0,260.4433,260.9415,,,,,,1075,FEM,DIS,150,señal,el,a,0.5661,,260.9415,260.9415,0.022222222,-0.361631944,0,0,0,,0,91,91,174,1,,,,
,,,,,,e19bc1b4e1a15b0f512be9ca,66a626ef09d4e21e1a8894ec,6734a01b51330dc1896f9bfb,2024-11-13_09h48.51.613,Tarea de género gramatical,2024.2.2,MacIntel,63.29113924,,,,,,,,,,,,,,,,,,,,,,,260.9428,262.525,l,1,[],[],[],[],[],[],[],0.9009,1,262.5256,263.0245,,,,,,1105,FEM,DIS,150,reina,el,a,0.9009,,263.0253,263.0258,0.022222222,-0.361631944,0,0,0,,0,92,92,204,1,,,,
,,,,,,e19bc1b4e1a15b0f512be9ca,66a626ef09d4e21e1a8894ec,6734a01b51330dc1896f9bfb,2024-11-13_09h48.51.613,Tarea de género gramatical,2024.2.2,MacIntel,63.29113924,,,,,,,,,,,,,,,,,,,,,,,263.0262,264.6579,l,1,[],[],[],[],[],[],[],0.9521,1,264.658,265.1588,,,,,,1155,FEM,CON,150,tribu,,a,0.9521,,265.1589,265.1589,0.022222222,-0.361631944,0,0,0,,0,93,93,254,1,,,,
,,,,,,e19bc1b4e1a15b0f512be9ca,66a626ef09d4e21e1a8894ec,6734a01b51330dc1896f9bfb,2024-11-13_09h48.51.613,Tarea de género gramatical,2024.2.2,MacIntel,63.29113924,,,,,,,,,,,,,,,,,,,,,,,265.1595,266.3754,a,1,[],[],[],[],[],[],[],0.5336,1,266.3755,266.8755,,,,,,1296,MAS,CON,150,tesoro,,l,0.5336,,266.8756,266.8757,0.022222222,-0.361631944,0,0,0,,0,94,94,395,1,,,,
,,,,,,e19bc1b4e1a15b0f512be9ca,66a626ef09d4e21e1a8894ec,6734a01b51330dc1896f9bfb,2024-11-13_09h48.51.613,Tarea de género gramatical,2024.2.2,MacIntel,63.29113924,,,,,,,,,,,,,,,,,,,,,,,266.8763,268.1751,a,1,[],[],[],[],[],[],[],0.6286,1,268.1752,268.6744,,,,,,1014,MAS,CON,150,menú,,l,0.6286,,268.6745,268.6746,0.022222222,-0.361631944,0,0,0,,0,95,95,113,1,,,,
,,,,,,e19bc1b4e1a15b0f512be9ca,66a626ef09d4e21e1a8894ec,6734a01b51330dc1896f9bfb,2024-11-13_09h48.51.613,Tarea de género gramatical,2024.2.2,MacIntel,63.29113924,,,,,,,,,,,,,,,,,,,,,,,268.6756,269.9253,l,1,[],[],[],[],[],[],[],0.5936,1,269.9254,270.4251,,,,,,987,FEM,CON,150,risa,,a,0.5936,,270.4258,270.4264,0.022222222,-0.361631944,0,0,0,,0,96,96,86,1,,,,
,,,,,,e19bc1b4e1a15b0f512be9ca,66a626ef09d4e21e1a8894ec,6734a01b51330dc1896f9bfb,2024-11-13_09h48.51.613,Tarea de género gramatical,2024.2.2,MacIntel,63.29113924,,,,,,,,,,,,,,,,,,,,,,,270.4269,271.592,a,1,[],[],[],[],[],[],[],0.4965,1,271.5921,272.0918,,,,,,1283,MAS,AGR,150,parque,el,l,0.4965,,272.0919,272.0919,0.022222222,-0.361631944,0,0,0,,0,97,97,382,1,,,,
,,,,,,e19bc1b4e1a15b0f512be9ca,66a626ef09d4e21e1a8894ec,6734a01b51330dc1896f9bfb,2024-11-13_09h48.51.613,Tarea de género gramatical,2024.2.2,MacIntel,63.29113924,,,,,,,,,,,,,,,,,,,,,,,272.0926,273.3416,l,1,[],[],[],[],[],[],[],0.5779,1,273.3418,273.8417,,,,,,1339,FEM,DIS,150,toalla,el,a,0.5779,,273.8417,273.8418,0.022222222,-0.361631944,0,0,0,,0,98,98,438,1,,,,
,,,,,,e19bc1b4e1a15b0f512be9ca,66a626ef09d4e21e1a8894ec,6734a01b51330dc1896f9bfb,2024-11-13_09h48.51.613,Tarea de género gramatical,2024.2.2,MacIntel,63.29113924,,,,,,,,,,,,,,,,,,,,,,,273.8425,275.2416,l,1,[],[],[],[],[],[],[],0.7169,1,275.2416,275.7414,,,,,,1045,FEM,DIS,150,bota,el,a,0.7169,,275.7414,275.7414,0.022222222,-0.361631944,0,0,0,,0,99,99,144,1,,,,
,,,,,,e19bc1b4e1a15b0f512be9ca,66a626ef09d4e21e1a8894ec,6734a01b51330dc1896f9bfb,2024-11-13_09h48.51.613,Tarea de género gramatical,2024.2.2,MacIntel,63.29113924,,,,,,,,,,,,,,,,,,,,,,,275.7418,276.7748,l,1,[],[],[],[],[],[],[],0.3609,1,276.7749,277.2749,,,,,,903,FEM,CON,150,cosa,,a,0.3609,,277.2749,277.275,0.022222222,-0.361631944,0,0,0,,0,100,100,2,1,,,,
,,,,,,e19bc1b4e1a15b0f512be9ca,66a626ef09d4e21e1a8894ec,6734a01b51330dc1896f9bfb,2024-11-13_09h48.51.613,Tarea de género gramatical,2024.2.2,MacIntel,63.29113924,,,,,,,,,,,,,,,,,,,,,,,277.2756,278.3749,a,1,[],[],[],[],[],[],[],0.4288,1,278.375,278.8737,,,,,,1314,MAS,CON,150,sótano,,l,0.4288,,278.8745,278.8749,0.022222222,-0.361631944,0,0,0,,0,101,101,413,1,,,,
,,,,,,e19bc1b4e1a15b0f512be9ca,66a626ef09d4e21e1a8894ec,6734a01b51330dc1896f9bfb,2024-11-13_09h48.51.613,Tarea de género gramatical,2024.2.2,MacIntel,63.29113924,,,,,,,,,,,,,,,,,,,,,,,278.8754,280.1913,a,1,[],[],[],[],[],[],[],0.6371,1,280.1914,280.6913,,,,,,947,MAS,AGR,150,olor,el,l,0.6371,,280.6914,280.6914,0.022222222,-0.361631944,0,0,0,,0,102,102,46,1,,,,
,,,,,,e19bc1b4e1a15b0f512be9ca,66a626ef09d4e21e1a8894ec,6734a01b51330dc1896f9bfb,2024-11-13_09h48.51.613,Tarea de género gramatical,2024.2.2,MacIntel,63.29113924,,,,,,,,,,,,,,,,,,,,,,,280.6921,281.8236,l,1,[],[],[],[],[],[],[],0.4585,1,281.8237,282.3245,,,,,,1070,FEM,AGR,150,carta,la,a,0.4585,,282.3246,282.3246,0.022222222,-0.361631944,0,0,0,,0,103,103,169,1,,,,
,,,,,,e19bc1b4e1a15b0f512be9ca,66a626ef09d4e21e1a8894ec,6734a01b51330dc1896f9bfb,2024-11-13_09h48.51.613,Tarea de género gramatical,2024.2.2,MacIntel,63.29113924,,,,,,,,,,,,,,,,,,,,,,,282.3253,283.6578,a,1,[],[],[],[],[],[],[],0.6627,1,283.658,284.1571,,,,,,1091,MAS,AGR,150,dolor,el,l,0.6627,,284.1572,284.1573,0.022222222,-0.361631944,0,0,0,,0,104,104,190,1,,,,
,,,,,,e19bc1b4e1a15b0f512be9ca,66a626ef09d4e21e1a8894ec,6734a01b51330dc1896f9bfb,2024-11-13_09h48.51.613,Tarea de género gramatical,2024.2.2,MacIntel,63.29113924,,,,,,,,,,,,,,,,,,,,,,,284.1584,285.391,l,1,[],[],[],[],[],[],[],0.577,1,285.3911,285.8905,,,,,,949,FEM,DIS,150,piel,el,a,0.577,,285.8912,285.8916,0.022222222,-0.361631944,0,0,0,,0,105,105,48,1,,,,
,,,,,,e19bc1b4e1a15b0f512be9ca,66a626ef09d4e21e1a8894ec,6734a01b51330dc1896f9bfb,2024-11-13_09h48.51.613,Tarea de género gramatical,2024.2.2,MacIntel,63.29113924,,,,,,,,,,,,,,,,,,,,,,,285.8921,287.0245,a,1,[],[],[],[],[],[],[],0.4512,1,287.0246,287.5243,,,,,,1019,MAS,AGR,150,mito,el,l,0.4512,,287.5243,287.5244,0.022222222,-0.361631944,0,0,0,,0,106,106,118,1,,,,
,,,,,,e19bc1b4e1a15b0f512be9ca,66a626ef09d4e21e1a8894ec,6734a01b51330dc1896f9bfb,2024-11-13_09h48.51.613,Tarea de género gramatical,2024.2.2,MacIntel,63.29113924,,,,,,,,,,,,,,,,,,,,,,,287.525,288.9074,a,1,[],[],[],[],[],[],[],0.7122,1,288.9076,289.4076,,,,,,1104,MAS,CON,150,papel,,l,0.7122,,289.4076,289.4076,0.022222222,-0.361631944,0,0,0,,0,107,107,203,1,,,,
,,,,,,e19bc1b4e1a15b0f512be9ca,66a626ef09d4e21e1a8894ec,6734a01b51330dc1896f9bfb,2024-11-13_09h48.51.613,Tarea de género gramatical,2024.2.2,MacIntel,63.29113924,,,,,,,,,,,,,,,,,,,,,,,289.4084,290.957,a,1,[],[],[],[],[],[],[],0.8698,1,290.957,291.4575,,,,,,1013,MAS,AGR,150,toro,el,l,0.8698,,291.4575,291.4575,0.022222222,-0.361631944,0,0,0,,0,108,108,112,1,,,,
,,,,,,e19bc1b4e1a15b0f512be9ca,66a626ef09d4e21e1a8894ec,6734a01b51330dc1896f9bfb,2024-11-13_09h48.51.613,Tarea de género gramatical,2024.2.2,MacIntel,63.29113924,,,,,,,,,,,,,,,,,,,,,,,291.4582,292.574,l,1,[],[],[],[],[],[],[],0.4386,1,292.5741,293.0743,,,,,,1291,FEM,DIS,150,altura,el,a,0.4386,,293.0743,293.0744,0.022222222,-0.361631944,0,0,0,,0,109,109,390,1,,,,
,,,,,,e19bc1b4e1a15b0f512be9ca,66a626ef09d4e21e1a8894ec,6734a01b51330dc1896f9bfb,2024-11-13_09h48.51.613,Tarea de género gramatical,2024.2.2,MacIntel,63.29113924,,,,,,,,,,,,,,,,,,,,,,,293.0753,294.4075,a,1,[],[],[],[],[],[],[],0.6613,1,294.4076,294.9075,,,,,,960,MAS,CON,150,tono,,l,0.6613,,294.9083,294.9087,0.022222222,-0.361631944,0,0,0,,0,110,110,59,1,,,,
,,,,,,e19bc1b4e1a15b0f512be9ca,66a626ef09d4e21e1a8894ec,6734a01b51330dc1896f9bfb,2024-11-13_09h48.51.613,Tarea de género gramatical,2024.2.2,MacIntel,63.29113924,,,,,,,,,,,,,,,,,,,,,,,294.9095,295.9401,l,1,[],[],[],[],[],[],[],0.3558,1,295.9402,296.4399,,,,,,1232,FEM,AGR,150,basura,la,a,0.3558,,296.4401,296.4401,0.022222222,-0.361631944,0,0,0,,0,111,111,331,1,,,,
,,,,,,e19bc1b4e1a15b0f512be9ca,66a626ef09d4e21e1a8894ec,6734a01b51330dc1896f9bfb,2024-11-13_09h48.51.613,Tarea de género gramatical,2024.2.2,MacIntel,63.29113924,,,,,,,,,,,,,,,,,,,,,,,296.4408,297.5405,a,1,[],[],[],[],[],[],[],0.4386,1,297.5406,298.0397,,,,,,1110,MAS,CON,150,baile,,l,0.4386,,298.0398,298.0399,0.022222222,-0.361631944,0,0,0,,0,112,112,209,1,,,,
,,,,,,e19bc1b4e1a15b0f512be9ca,66a626ef09d4e21e1a8894ec,6734a01b51330dc1896f9bfb,2024-11-13_09h48.51.613,Tarea de género gramatical,2024.2.2,MacIntel,63.29113924,,,,,,,,,,,,,,,,,,,,,,,298.0407,299.2404,l,1,[],[],[],[],[],[],[],0.5356,1,299.2406,299.7404,,,,,,1231,FEM,DIS,150,cárcel,el,a,0.5356,,299.7405,299.7405,0.022222222,-0.361631944,0,0,0,,0,113,113,330,1,,,,
,,,,,,e19bc1b4e1a15b0f512be9ca,66a626ef09d4e21e1a8894ec,6734a01b51330dc1896f9bfb,2024-11-13_09h48.51.613,Tarea de género gramatical,2024.2.2,MacIntel,63.29113924,,,,,,,,,,,,,,,,,,,,,,,299.7413,300.8237,l,1,[],[],[],[],[],[],[],0.4007,1,300.8239,301.3239,,,,,,921,FEM,CON,150,boca,,a,0.4007,,301.3252,301.3259,0.022222222,-0.361631944,0,0,0,,0,114,114,20,1,,,,
,,,,,,e19bc1b4e1a15b0f512be9ca,66a626ef09d4e21e1a8894ec,6734a01b51330dc1896f9bfb,2024-11-13_09h48.51.613,Tarea de género gramatical,2024.2.2,MacIntel,63.29113924,,,,,,,,,,,,,,,,,,,,,,,301.3266,302.4403,a,1,[],[],[],[],[],[],[],0.4348,1,302.4403,302.9403,,,,,,1193,MAS,AGR,150,patio,el,l,0.4348,,302.9404,302.9404,0.022222222,-0.361631944,0,0,0,,0,115,115,292,1,,,,
,,,,,,e19bc1b4e1a15b0f512be9ca,66a626ef09d4e21e1a8894ec,6734a01b51330dc1896f9bfb,2024-11-13_09h48.51.613,Tarea de género gramatical,2024.2.2,MacIntel,63.29113924,,,,,,,,,,,,,,,,,,,,,,,302.9414,303.973,l,1,[],[],[],[],[],[],[],0.3509,1,303.9731,304.4735,,,,,,986,FEM,AGR,150,cruz,la,a,0.3509,,304.4735,304.4736,0.022222222,-0.361631944,0,0,0,,0,116,116,85,1,,,,
,,,,,,e19bc1b4e1a15b0f512be9ca,66a626ef09d4e21e1a8894ec,6734a01b51330dc1896f9bfb,2024-11-13_09h48.51.613,Tarea de género gramatical,2024.2.2,MacIntel,63.29113924,,,,,,,,,,,,,,,,,,,,,,,304.4743,305.7402,l,1,[],[],[],[],[],[],[],0.5835,1,305.7402,306.2404,,,,,,1029,FEM,CON,150,rana,,a,0.5835,,306.2404,306.2405,0.022222222,-0.361631944,0,0,0,,0,117,117,128,1,,,,
,,,,,,e19bc1b4e1a15b0f512be9ca,66a626ef09d4e21e1a8894ec,6734a01b51330dc1896f9bfb,2024-11-13_09h48.51.613,Tarea de género gramatical,2024.2.2,MacIntel,63.29113924,,,,,,,,,,,,,,,,,,,,,,,306.2416,307.2567,l,1,[],[],[],[],[],[],[],0.3434,1,307.2567,307.7567,,,,,,1137,FEM,CON,150,ducha,,a,0.3434,,307.7567,307.7568,0.022222222,-0.361631944,0,0,0,,0,118,118,236,1,,,,
,,,,,,e19bc1b4e1a15b0f512be9ca,66a626ef09d4e21e1a8894ec,6734a01b51330dc1896f9bfb,2024-11-13_09h48.51.613,Tarea de género gramatical,2024.2.2,MacIntel,63.29113924,,,,,,,,,,,,,,,,,,,,,,,307.758,308.89,l,1,[],[],[],[],[],[],[],0.4509,1,308.8901,309.3897,,,,,,1261,FEM,DIS,150,oferta,el,a,0.4509,,309.391,309.3916,0.022222222,-0.361631944,0,0,0,,0,119,119,360,1,,,,
,,,,,,e19bc1b4e1a15b0f512be9ca,66a626ef09d4e21e1a8894ec,6734a01b51330dc1896f9bfb,2024-11-13_09h48.51.613,Tarea de género gramatical,2024.2.2,MacIntel,63.29113924,,,,,,,,,,,,,,,,,,,,,,,309.3922,310.4732,a,1,[],[],[],[],[],[],[],0.4127,1,310.4733,310.9735,,,,,,1055,MAS,AGR,150,mundo,el,l,0.4127,,310.9735,310.9737,0.022222222,-0.361631944,0,0,0,,0,120,120,154,1,,,,
,,,,,,e19bc1b4e1a15b0f512be9ca,66a626ef09d4e21e1a8894ec,6734a01b51330dc1896f9bfb,2024-11-13_09h48.51.613,Tarea de género gramatical,2024.2.2,MacIntel,63.29113924,,,,,,,,,,,,,,,,,,,,,,,310.9744,311.9566,l,1,[],[],[],[],[],[],[],0.3106,1,311.9567,312.4566,,,,,,909,FEM,CON,150,mamá,,a,0.3106,,312.4566,312.4567,0.022222222,-0.361631944,0,0,0,,0,121,121,8,1,,,,
,,,,,,e19bc1b4e1a15b0f512be9ca,66a626ef09d4e21e1a8894ec,6734a01b51330dc1896f9bfb,2024-11-13_09h48.51.613,Tarea de género gramatical,2024.2.2,MacIntel,63.29113924,,,,,,,,,,,,,,,,,,,,,,,312.4577,313.5399,a,1,[],[],[],[],[],[],[],0.4003,1,313.5399,314.0401,,,,,,1332,MAS,CON,150,océano,,l,0.4003,,314.0401,314.0402,0.022222222,-0.361631944,0,0,0,,0,122,122,431,1,,,,
,,,,,,e19bc1b4e1a15b0f512be9ca,66a626ef09d4e21e1a8894ec,6734a01b51330dc1896f9bfb,2024-11-13_09h48.51.613,Tarea de género gramatical,2024.2.2,MacIntel,63.29113924,,,,,,,,,,,,,,,,,,,,,,,314.0413,315.3898,a,1,[],[],[],[],[],[],[],0.6693,1,315.3899,315.8897,,,,,,1031,MAS,AGR,150,kilo,el,l,0.6693,,315.8904,315.891,0.022222222,-0.361631944,0,0,0,,0,123,123,130,1,,,,
,,,,,,e19bc1b4e1a15b0f512be9ca,66a626ef09d4e21e1a8894ec,6734a01b51330dc1896f9bfb,2024-11-13_09h48.51.613,Tarea de género gramatical,2024.2.2,MacIntel,63.29113924,,,,,,,,,,,,,,,,,,,,,,,315.8915,317.0896,l,1,[],[],[],[],[],[],[],0.5194,1,317.0897,317.5896,,,,,,1287,FEM,CON,150,página,,a,0.5194,,317.5896,317.5897,0.022222222,-0.361631944,0,0,0,,0,124,124,386,1,,,,
,,,,,,e19bc1b4e1a15b0f512be9ca,66a626ef09d4e21e1a8894ec,6734a01b51330dc1896f9bfb,2024-11-13_09h48.51.613,Tarea de género gramatical,2024.2.2,MacIntel,63.29113924,,,,,,,,,,,,,,,,,,,,,,,317.5903,318.723,a,1,[],[],[],[],[],[],[],0.4626,1,318.7231,319.2229,,,,,,1277,MAS,AGR,150,jardín,el,l,0.4626,,319.2229,319.2229,0.022222222,-0.361631944,0,0,0,,0,125,125,376,1,,,,
,,,,,,e19bc1b4e1a15b0f512be9ca,66a626ef09d4e21e1a8894ec,6734a01b51330dc1896f9bfb,2024-11-13_09h48.51.613,Tarea de género gramatical,2024.2.2,MacIntel,63.29113924,,,,,,,,,,,,,,,,,,,,,,,319.2238,320.472,a,1,[],[],[],[],[],[],[],0.5787,1,320.472,320.9728,,,,,,1326,MAS,CON,150,pánico,,l,0.5787,,320.9728,320.9729,0.022222222,-0.361631944,0,0,0,,0,126,126,425,1,,,,
,,,,,,e19bc1b4e1a15b0f512be9ca,66a626ef09d4e21e1a8894ec,6734a01b51330dc1896f9bfb,2024-11-13_09h48.51.613,Tarea de género gramatical,2024.2.2,MacIntel,63.29113924,,,,,,,,,,,,,,,,,,,,,,,320.9735,322.006,l,1,[],[],[],[],[],[],[],0.3525,1,322.006,322.506,,,,,,1225,FEM,DIS,150,tierra,el,a,0.3525,,322.506,322.5062,0.022222222,-0.361631944,0,0,0,,0,127,127,324,1,,,,
,,,,,,e19bc1b4e1a15b0f512be9ca,66a626ef09d4e21e1a8894ec,6734a01b51330dc1896f9bfb,2024-11-13_09h48.51.613,Tarea de género gramatical,2024.2.2,MacIntel,63.29113924,,,,,,,,,,,,,,,,,,,,,,,322.5069,323.6229,l,1,[],[],[],[],[],[],[],0.4435,1,323.623,324.122,,,,,,1257,FEM,CON,150,lengua,,a,0.4435,,324.1228,324.1234,0.022222222,-0.361631944,0,0,0,,0,128,128,356,1,,,,
,,,,,,e19bc1b4e1a15b0f512be9ca,66a626ef09d4e21e1a8894ec,6734a01b51330dc1896f9bfb,2024-11-13_09h48.51.613,Tarea de género gramatical,2024.2.2,MacIntel,63.29113924,,,,,,,,,,,,,,,,,,,,,,,324.1241,325.2395,l,1,[],[],[],[],[],[],[],0.4391,1,325.2395,325.7392,,,,,,1119,FEM,CON,150,costa,,a,0.4391,,325.7393,325.7393,0.022222222,-0.361631944,0,0,0,,0,129,129,218,1,,,,
,,,,,,e19bc1b4e1a15b0f512be9ca,66a626ef09d4e21e1a8894ec,6734a01b51330dc1896f9bfb,2024-11-13_09h48.51.613,Tarea de género gramatical,2024.2.2,MacIntel,63.29113924,,,,,,,,,,,,,,,,,,,,,,,325.7401,326.8058,a,1,[],[],[],[],[],[],[],0.3888,1,326.806,327.3058,,,,,,1337,MAS,AGR,150,hombro,el,l,0.3888,,327.3059,327.3059,0.022222222,-0.361631944,0,0,0,,0,130,130,436,1,,,,
,,,,,,e19bc1b4e1a15b0f512be9ca,66a626ef09d4e21e1a8894ec,6734a01b51330dc1896f9bfb,2024-11-13_09h48.51.613,Tarea de género gramatical,2024.2.2,MacIntel,63.29113924,,,,,,,,,,,,,,,,,,,,,,,327.3066,328.2893,l,1,[],[],[],[],[],[],[],0.3109,1,328.2894,328.7887,,,,,,957,FEM,CON,150,moda,,a,0.3109,,328.7888,328.7889,0.022222222,-0.361631944,0,0,0,,0,131,131,56,1,,,,
,,,,,,e19bc1b4e1a15b0f512be9ca,66a626ef09d4e21e1a8894ec,6734a01b51330dc1896f9bfb,2024-11-13_09h48.51.613,Tarea de género gramatical,2024.2.2,MacIntel,63.29113924,,,,,,,,,,,,,,,,,,,,,,,328.7896,329.7724,l,1,[],[],[],[],[],[],[],0.3096,1,329.7725,330.2725,,,,,,1322,FEM,AGR,150,rutina,la,a,0.3096,,330.2738,330.2747,0.022222222,-0.361631944,0,0,0,,0,132,132,421,1,,,,
,,,,,,e19bc1b4e1a15b0f512be9ca,66a626ef09d4e21e1a8894ec,6734a01b51330dc1896f9bfb,2024-11-13_09h48.51.613,Tarea de género gramatical,2024.2.2,MacIntel,63.29113924,,,,,,,,,,,,,,,,,,,,,,,330.2755,331.3392,a,1,[],[],[],[],[],[],[],0.3881,1,331.3393,331.8392,,,,,,971,MAS,AGR,150,pozo,el,l,0.3881,,331.8392,331.8392,0.022222222,-0.361631944,0,0,0,,0,133,133,70,1,,,,
,,,,,,e19bc1b4e1a15b0f512be9ca,66a626ef09d4e21e1a8894ec,6734a01b51330dc1896f9bfb,2024-11-13_09h48.51.613,Tarea de género gramatical,2024.2.2,MacIntel,63.29113924,,,,,,,,,,,,,,,,,,,,,,,331.84,333.2389,a,1,[],[],[],[],[],[],[],0.7265,1,333.2391,333.739,,,,,,1192,MAS,DIS,150,piano,la,l,0.7265,,333.739,333.7391,0.022222222,-0.361631944,0,0,0,,0,134,134,291,1,,,,
,,,,,,e19bc1b4e1a15b0f512be9ca,66a626ef09d4e21e1a8894ec,6734a01b51330dc1896f9bfb,2024-11-13_09h48.51.613,Tarea de género gramatical,2024.2.2,MacIntel,63.29113924,,,,,,,,,,,,,,,,,,,,,,,333.7401,334.788,l,1,[],[],[],[],[],[],[],0.3791,1,334.7881,335.2889,,,,,,950,FEM,AGR,150,dama,la,a,0.3791,,335.289,335.2891,0.022222222,-0.361631944,0,0,0,,0,135,135,49,1,,,,
,,,,,,e19bc1b4e1a15b0f512be9ca,66a626ef09d4e21e1a8894ec,6734a01b51330dc1896f9bfb,2024-11-13_09h48.51.613,Tarea de género gramatical,2024.2.2,MacIntel,63.29113924,,,,,,,,,,,,,,,,,,,,,,,335.29,336.3885,a,1,[],[],[],[],[],[],[],0.4199,1,336.3887,336.889,,,,,,1254,MAS,CON,150,camión,,l,0.4199,,336.8891,336.8891,0.022222222,-0.361631944,0,0,0,,0,136,136,353,1,,,,
,,,,,,e19bc1b4e1a15b0f512be9ca,66a626ef09d4e21e1a8894ec,6734a01b51330dc1896f9bfb,2024-11-13_09h48.51.613,Tarea de género gramatical,2024.2.2,MacIntel,63.29113924,,,,,,,,,,,,,,,,,,,,,,,336.8902,337.9389,l,1,[],[],[],[],[],[],[],0.3691,1,337.939,338.4378,,,,,,1053,FEM,CON,150,mujer,,a,0.3691,,338.4386,338.4391,0.022222222,-0.361631944,0,0,0,,0,137,137,152,1,,,,
,,,,,,e19bc1b4e1a15b0f512be9ca,66a626ef09d4e21e1a8894ec,6734a01b51330dc1896f9bfb,2024-11-13_09h48.51.613,Tarea de género gramatical,2024.2.2,MacIntel,63.29113924,,,,,,,,,,,,,,,,,,,,,,,338.4395,339.4223,l,1,[],[],[],[],[],[],[],0.3035,1,339.4225,339.9219,,,,,,1131,FEM,CON,150,bruja,,a,0.3035,,339.922,339.922,0.022222222,-0.361631944,0,0,0,,0,138,138,230,1,,,,
,,,,,,e19bc1b4e1a15b0f512be9ca,66a626ef09d4e21e1a8894ec,6734a01b51330dc1896f9bfb,2024-11-13_09h48.51.613,Tarea de género gramatical,2024.2.2,MacIntel,63.29113924,,,,,,,,,,,,,,,,,,,,,,,339.9227,341.0047,a,1,[],[],[],[],[],[],[],0.4098,1,341.0048,341.5051,,,,,,1036,MAS,DIS,150,vago,la,l,0.4098,,341.5052,341.5053,0.022222222,-0.361631944,0,0,0,,0,139,139,135,1,,,,
,,,,,,e19bc1b4e1a15b0f512be9ca,66a626ef09d4e21e1a8894ec,6734a01b51330dc1896f9bfb,2024-11-13_09h48.51.613,Tarea de género gramatical,2024.2.2,MacIntel,63.29113924,,,,,,,,,,,,,,,,,,,,,,,341.5059,342.6385,l,1,[],[],[],[],[],[],[],0.4554,1,342.6387,343.1385,,,,,,1069,FEM,DIS,150,vista,el,a,0.4554,,343.1385,343.1386,0.022222222,-0.361631944,0,0,0,,0,140,140,168,1,,,,
,,,,,,e19bc1b4e1a15b0f512be9ca,66a626ef09d4e21e1a8894ec,6734a01b51330dc1896f9bfb,2024-11-13_09h48.51.613,Tarea de género gramatical,2024.2.2,MacIntel,63.29113924,,,,,,,,,,,,,,,,,,,,,,,343.1397,344.4217,a,1,[],[],[],[],[],[],[],0.6007,1,344.4218,344.9214,,,,,,1284,MAS,CON,150,pedazo,,l,0.6007,,344.9223,344.9232,0.022222222,-0.361631944,0,0,0,,0,141,141,383,1,,,,
,,,,,,e19bc1b4e1a15b0f512be9ca,66a626ef09d4e21e1a8894ec,6734a01b51330dc1896f9bfb,2024-11-13_09h48.51.613,Tarea de género gramatical,2024.2.2,MacIntel,63.29113924,,,,,,,,,,,,,,,,,,,,,,,344.9239,346.4217,a,1,[],[],[],[],[],[],[],0.8213,1,346.4218,346.9218,,,,,,1265,MAS,AGR,150,código,el,l,0.8213,,346.9219,346.922,0.022222222,-0.361631944,0,0,0,,0,142,142,364,1,,,,
,,,,,,e19bc1b4e1a15b0f512be9ca,66a626ef09d4e21e1a8894ec,6734a01b51330dc1896f9bfb,2024-11-13_09h48.51.613,Tarea de género gramatical,2024.2.2,MacIntel,63.29113924,,,,,,,,,,,,,,,,,,,,,,,346.923,348.338,a,1,[],[],[],[],[],[],[],0.7358,1,348.3382,348.8384,,,,,,1006,MAS,DIS,150,test,la,l,0.7358,,348.8384,348.8386,0.022222222,-0.361631944,0,0,0,,0,143,143,105,1,,,,
,,,,,,e19bc1b4e1a15b0f512be9ca,66a626ef09d4e21e1a8894ec,6734a01b51330dc1896f9bfb,2024-11-13_09h48.51.613,Tarea de género gramatical,2024.2.2,MacIntel,63.29113924,,,,,,,,,,,,,,,,,,,,,,,348.8396,349.921,l,0,[],[],[],[],[],[],[],0.4114,0,349.9218,350.4213,,,,,,1294,MAS,DIS,150,examen,la,l,0.4114,,350.4214,350.4215,0.022222222,-0.361631944,0,0,0,,0,144,144,393,1,,,,
,,,,,,e19bc1b4e1a15b0f512be9ca,66a626ef09d4e21e1a8894ec,6734a01b51330dc1896f9bfb,2024-11-13_09h48.51.613,Tarea de género gramatical,2024.2.2,MacIntel,63.29113924,,,,,,,,,,,,,,,,,,,,,,,350.4225,352.0881,a,1,[],[],[],[],[],[],[],0.9893,1,352.0887,352.5881,,,,,,1240,MAS,DIS,150,pasado,la,l,0.9893,,352.5881,352.5883,0.022222222,-0.361631944,0,0,0,,0,145,145,339,1,,,,
,,,,,,e19bc1b4e1a15b0f512be9ca,66a626ef09d4e21e1a8894ec,6734a01b51330dc1896f9bfb,2024-11-13_09h48.51.613,Tarea de género gramatical,2024.2.2,MacIntel,63.29113924,,,,,,,,,,,,,,,,,,,,,,,352.5889,354.0547,l,1,[],[],[],[],[],[],[],0.7932,1,354.0548,354.5548,,,,,,901,FEM,DIS,150,casa,el,a,0.7932,,354.5555,354.556,0.022222222,-0.361631944,0,0,0,,0,146,146,0,1,,,,
,,,,,,e19bc1b4e1a15b0f512be9ca,66a626ef09d4e21e1a8894ec,6734a01b51330dc1896f9bfb,2024-11-13_09h48.51.613,Tarea de género gramatical,2024.2.2,MacIntel,63.29113924,,,,,,,,,,,,,,,,,,,,,,,354.5565,356.1546,a,1,[],[],[],[],[],[],[],0.9273,1,356.1547,356.6538,,,,,,994,MAS,DIS,150,cabo,la,l,0.9273,,356.6538,356.6539,0.022222222,-0.361631944,0,0,0,,0,147,147,93,1,,,,
,,,,,,e19bc1b4e1a15b0f512be9ca,66a626ef09d4e21e1a8894ec,6734a01b51330dc1896f9bfb,2024-11-13_09h48.51.613,Tarea de género gramatical,2024.2.2,MacIntel,63.29113924,,,,,,,,,,,,,,,,,,,,,,,356.6548,357.9378,a,1,[],[],[],[],[],[],[],0.6176,1,357.9379,358.438,,,,,,1062,MAS,CON,150,miedo,,l,0.6176,,358.438,358.4381,0.022222222,-0.361631944,0,0,0,,0,148,148,161,1,,,,
,,,,,,e19bc1b4e1a15b0f512be9ca,66a626ef09d4e21e1a8894ec,6734a01b51330dc1896f9bfb,2024-11-13_09h48.51.613,Tarea de género gramatical,2024.2.2,MacIntel,63.29113924,,,,,,,,,,,,,,,,,,,,,,,358.4392,359.9202,a,1,[],[],[],[],[],[],[],0.8001,1,359.9203,360.4211,,,,,,1144,MAS,DIS,150,hielo,la,l,0.8001,,360.4211,360.4213,0.022222222,-0.361631944,0,0,0,,0,149,149,243,1,,,,
,,,,,,e19bc1b4e1a15b0f512be9ca,66a626ef09d4e21e1a8894ec,6734a01b51330dc1896f9bfb,2024-11-13_09h48.51.613,Tarea de género gramatical,2024.2.2,MacIntel,63.29113924,,,,,,,,,,,,,,,,,,,,,,,360.4222,361.5867,l,1,[],[],[],[],[],[],[],0.4846,1,361.5867,362.0877,,,,,,1009,FEM,DIS,150,gota,el,a,0.4846,,362.089,375.5371,0.010486111,-0.368459201,0,0,0,space,0,150,150,108,1,13.4246,,,
,,,,,,e19bc1b4e1a15b0f512be9ca,66a626ef09d4e21e1a8894ec,6734a01b51330dc1896f9bfb,2024-11-13_09h48.51.613,Tarea de género gramatical,2024.2.2,MacIntel,63.29113924,,,,,,,,,,,,,,,,,,,,,,,375.538,378.187,,0,[],[],[],[],[],[],[],0.4846,-1,378.1878,378.6868,,,,,,1004,FEM,AGR,150,vela,la,a,,,378.6868,378.687,0.010486111,-0.368459201,0,0,0,,0,151,151,103,1,,,,
,,,,,,e19bc1b4e1a15b0f512be9ca,66a626ef09d4e21e1a8894ec,6734a01b51330dc1896f9bfb,2024-11-13_09h48.51.613,Tarea de género gramatical,2024.2.2,MacIntel,63.29113924,,,,,,,,,,,,,,,,,,,,,,,378.6876,379.9702,l,1,[],[],[],[],[],[],[],0.6009,1,379.9706,380.4693,,,,,,1021,FEM,DIS,150,pila,el,a,0.6009,,380.4693,380.4694,0.010486111,-0.368459201,0,0,0,,0,152,152,120,1,,,,
,,,,,,e19bc1b4e1a15b0f512be9ca,66a626ef09d4e21e1a8894ec,6734a01b51330dc1896f9bfb,2024-11-13_09h48.51.613,Tarea de género gramatical,2024.2.2,MacIntel,63.29113924,,,,,,,,,,,,,,,,,,,,,,,380.47,381.5367,a,1,[],[],[],[],[],[],[],0.3954,1,381.5367,382.0366,,,,,,959,MAS,AGR,150,lobo,el,l,0.3954,,382.0366,382.0366,0.010486111,-0.368459201,0,0,0,,0,153,153,58,1,,,,
,,,,,,e19bc1b4e1a15b0f512be9ca,66a626ef09d4e21e1a8894ec,6734a01b51330dc1896f9bfb,2024-11-13_09h48.51.613,Tarea de género gramatical,2024.2.2,MacIntel,63.29113924,,,,,,,,,,,,,,,,,,,,,,,382.0369,383.37,a,1,[],[],[],[],[],[],[],0.6625,1,383.3701,383.87,,,,,,995,MAS,AGR,150,tomo,el,l,0.6625,,383.87,383.8701,0.010486111,-0.368459201,0,0,0,,0,154,154,94,1,,,,
,,,,,,e19bc1b4e1a15b0f512be9ca,66a626ef09d4e21e1a8894ec,6734a01b51330dc1896f9bfb,2024-11-13_09h48.51.613,Tarea de género gramatical,2024.2.2,MacIntel,63.29113924,,,,,,,,,,,,,,,,,,,,,,,383.8708,385.5031,a,1,[],[],[],[],[],[],[],0.9517,1,385.5032,386.0033,,,,,,1186,MAS,DIS,150,reino,la,l,0.9517,,386.0049,386.006,0.010486111,-0.368459201,0,0,0,,0,155,155,285,1,,,,
,,,,,,e19bc1b4e1a15b0f512be9ca,66a626ef09d4e21e1a8894ec,6734a01b51330dc1896f9bfb,2024-11-13_09h48.51.613,Tarea de género gramatical,2024.2.2,MacIntel,63.29113924,,,,,,,,,,,,,,,,,,,,,,,386.0066,387.0363,l,1,[],[],[],[],[],[],[],0.3633,1,387.0364,387.5358,,,,,,1173,FEM,CON,150,tarta,,a,0.3633,,387.5359,387.536,0.010486111,-0.368459201,0,0,0,,0,156,156,272,1,,,,
,,,,,,e19bc1b4e1a15b0f512be9ca,66a626ef09d4e21e1a8894ec,6734a01b51330dc1896f9bfb,2024-11-13_09h48.51.613,Tarea de género gramatical,2024.2.2,MacIntel,63.29113924,,,,,,,,,,,,,,,,,,,,,,,387.5366,388.7197,a,1,[],[],[],[],[],[],[],0.528,1,388.7198,389.2199,,,,,,1212,MAS,CON,150,equipo,,l,0.528,,389.2199,389.2201,0.010486111,-0.368459201,0,0,0,,0,157,157,311,1,,,,
,,,,,,e19bc1b4e1a15b0f512be9ca,66a626ef09d4e21e1a8894ec,6734a01b51330dc1896f9bfb,2024-11-13_09h48.51.613,Tarea de género gramatical,2024.2.2,MacIntel,63.29113924,,,,,,,,,,,,,,,,,,,,,,,389.2213,390.2533,l,1,[],[],[],[],[],[],[],0.3612,1,390.2533,390.7529,,,,,,1117,FEM,DIS,150,tarea,el,a,0.3612,,390.753,390.7531,0.010486111,-0.368459201,0,0,0,,0,158,158,216,1,,,,
,,,,,,e19bc1b4e1a15b0f512be9ca,66a626ef09d4e21e1a8894ec,6734a01b51330dc1896f9bfb,2024-11-13_09h48.51.613,Tarea de género gramatical,2024.2.2,MacIntel,63.29113924,,,,,,,,,,,,,,,,,,,,,,,390.7537,391.9695,a,1,[],[],[],[],[],[],[],0.5392,1,391.9697,392.4696,,,,,,1037,MAS,AGR,150,coco,el,l,0.5392,,392.4703,392.4708,0.010486111,-0.368459201,0,0,0,,0,159,159,136,1,,,,
,,,,,,e19bc1b4e1a15b0f512be9ca,66a626ef09d4e21e1a8894ec,6734a01b51330dc1896f9bfb,2024-11-13_09h48.51.613,Tarea de género gramatical,2024.2.2,MacIntel,63.29113924,,,,,,,,,,,,,,,,,,,,,,,392.4712,393.452,l,1,[],[],[],[],[],[],[],0.3106,1,393.4521,393.9528,,,,,,1077,FEM,CON,150,broma,,a,0.3106,,393.9529,393.953,0.010486111,-0.368459201,0,0,0,,0,160,160,176,1,,,,
,,,,,,e19bc1b4e1a15b0f512be9ca,66a626ef09d4e21e1a8894ec,6734a01b51330dc1896f9bfb,2024-11-13_09h48.51.613,Tarea de género gramatical,2024.2.2,MacIntel,63.29113924,,,,,,,,,,,,,,,,,,,,,,,393.9536,395.003,a,1,[],[],[],[],[],[],[],0.375,1,395.0031,395.5027,,,,,,1241,MAS,AGR,150,precio,el,l,0.375,,395.5028,395.5028,0.010486111,-0.368459201,0,0,0,,0,161,161,340,1,,,,
,,,,,,e19bc1b4e1a15b0f512be9ca,66a626ef09d4e21e1a8894ec,6734a01b51330dc1896f9bfb,2024-11-13_09h48.51.613,Tarea de género gramatical,2024.2.2,MacIntel,63.29113924,,,,,,,,,,,,,,,,,,,,,,,395.5037,396.553,a,1,[],[],[],[],[],[],[],0.3787,1,396.5531,397.0525,,,,,,1007,MAS,AGR,150,cubo,el,l,0.3787,,397.0525,397.0527,0.010486111,-0.368459201,0,0,0,,0,162,162,106,1,,,,
,,,,,,e19bc1b4e1a15b0f512be9ca,66a626ef09d4e21e1a8894ec,6734a01b51330dc1896f9bfb,2024-11-13_09h48.51.613,Tarea de género gramatical,2024.2.2,MacIntel,63.29113924,,,,,,,,,,,,,,,,,,,,,,,397.0537,398.086,l,1,[],[],[],[],[],[],[],0.3503,1,398.0861,398.5862,,,,,,1076,FEM,AGR,150,línea,la,a,0.3503,,398.5863,398.5863,0.010486111,-0.368459201,0,0,0,,0,163,163,175,1,,,,
,,,,,,e19bc1b4e1a15b0f512be9ca,66a626ef09d4e21e1a8894ec,6734a01b51330dc1896f9bfb,2024-11-13_09h48.51.613,Tarea de género gramatical,2024.2.2,MacIntel,63.29113924,,,,,,,,,,,,,,,,,,,,,,,398.5872,399.8525,a,1,[],[],[],[],[],[],[],0.5956,1,399.8526,400.3527,,,,,,1038,MAS,CON,150,luto,,l,0.5956,,400.3534,400.3539,0.010486111,-0.368459201,0,0,0,,0,164,164,137,1,,,,
,,,,,,e19bc1b4e1a15b0f512be9ca,66a626ef09d4e21e1a8894ec,6734a01b51330dc1896f9bfb,2024-11-13_09h48.51.613,Tarea de género gramatical,2024.2.2,MacIntel,63.29113924,,,,,,,,,,,,,,,,,,,,,,,400.3544,401.6358,a,1,[],[],[],[],[],[],[],0.6114,1,401.6359,402.136,,,,,,1024,MAS,DIS,150,clan,la,l,0.6114,,402.136,402.1361,0.010486111,-0.368459201,0,0,0,,0,165,165,123,1,,,,
,,,,,,e19bc1b4e1a15b0f512be9ca,66a626ef09d4e21e1a8894ec,6734a01b51330dc1896f9bfb,2024-11-13_09h48.51.613,Tarea de género gramatical,2024.2.2,MacIntel,63.29113924,,,,,,,,,,,,,,,,,,,,,,,402.1368,403.3524,a,1,[],[],[],[],[],[],[],0.5436,1,403.3525,403.8526,,,,,,1163,MAS,AGR,150,carro,el,l,0.5436,,403.8526,403.8527,0.010486111,-0.368459201,0,0,0,,0,166,166,262,1,,,,
,,,,,,e19bc1b4e1a15b0f512be9ca,66a626ef09d4e21e1a8894ec,6734a01b51330dc1896f9bfb,2024-11-13_09h48.51.613,Tarea de género gramatical,2024.2.2,MacIntel,63.29113924,,,,,,,,,,,,,,,,,,,,,,,403.8534,404.9023,l,1,[],[],[],[],[],[],[],0.3781,1,404.9024,405.4026,,,,,,1243,FEM,DIS,150,trampa,el,a,0.3781,,405.4026,405.4027,0.010486111,-0.368459201,0,0,0,,0,167,167,342,1,,,,
,,,,,,e19bc1b4e1a15b0f512be9ca,66a626ef09d4e21e1a8894ec,6734a01b51330dc1896f9bfb,2024-11-13_09h48.51.613,Tarea de género gramatical,2024.2.2,MacIntel,63.29113924,,,,,,,,,,,,,,,,,,,,,,,405.4036,406.6856,a,1,[],[],[],[],[],[],[],0.6004,1,406.6857,407.1858,,,,,,1102,MAS,DIS,150,honor,la,l,0.6004,,407.187,407.1878,0.010486111,-0.368459201,0,0,0,,0,168,168,201,1,,,,
,,,,,,e19bc1b4e1a15b0f512be9ca,66a626ef09d4e21e1a8894ec,6734a01b51330dc1896f9bfb,2024-11-13_09h48.51.613,Tarea de género gramatical,2024.2.2,MacIntel,63.29113924,,,,,,,,,,,,,,,,,,,,,,,407.1884,408.3356,l,1,[],[],[],[],[],[],[],0.4703,1,408.3356,408.8355,,,,,,945,FEM,CON,150,isla,,a,0.4703,,408.8355,408.8356,0.010486111,-0.368459201,0,0,0,,0,169,169,44,1,,,,
,,,,,,e19bc1b4e1a15b0f512be9ca,66a626ef09d4e21e1a8894ec,6734a01b51330dc1896f9bfb,2024-11-13_09h48.51.613,Tarea de género gramatical,2024.2.2,MacIntel,63.29113924,,,,,,,,,,,,,,,,,,,,,,,408.8363,409.9854,l,1,[],[],[],[],[],[],[],0.4723,1,409.9855,410.4855,,,,,,1279,FEM,DIS,150,granja,el,a,0.4723,,410.4856,410.4856,0.010486111,-0.368459201,0,0,0,,0,170,170,378,1,,,,
,,,,,,e19bc1b4e1a15b0f512be9ca,66a626ef09d4e21e1a8894ec,6734a01b51330dc1896f9bfb,2024-11-13_09h48.51.613,Tarea de género gramatical,2024.2.2,MacIntel,63.29113924,,,,,,,,,,,,,,,,,,,,,,,410.4862,411.6688,a,1,[],[],[],[],[],[],[],0.5038,1,411.6688,412.1682,,,,,,922,MAS,DIS,150,pelo,la,l,0.5038,,412.1684,412.1684,0.010486111,-0.368459201,0,0,0,,0,171,171,21,1,,,,
,,,,,,e19bc1b4e1a15b0f512be9ca,66a626ef09d4e21e1a8894ec,6734a01b51330dc1896f9bfb,2024-11-13_09h48.51.613,Tarea de género gramatical,2024.2.2,MacIntel,63.29113924,,,,,,,,,,,,,,,,,,,,,,,412.1695,413.3852,l,1,[],[],[],[],[],[],[],0.5355,1,413.3854,413.8852,,,,,,1040,FEM,AGR,150,mula,la,a,0.5355,,413.8853,413.8854,0.010486111,-0.368459201,0,0,0,,0,172,172,139,1,,,,
,,,,,,e19bc1b4e1a15b0f512be9ca,66a626ef09d4e21e1a8894ec,6734a01b51330dc1896f9bfb,2024-11-13_09h48.51.613,Tarea de género gramatical,2024.2.2,MacIntel,63.29113924,,,,,,,,,,,,,,,,,,,,,,,413.8864,414.9187,a,1,[],[],[],[],[],[],[],0.3623,1,414.9188,415.4185,,,,,,1218,MAS,CON,150,pueblo,,l,0.3623,,415.4196,415.4204,0.010486111,-0.368459201,0,0,0,,0,173,173,317,1,,,,
,,,,,,e19bc1b4e1a15b0f512be9ca,66a626ef09d4e21e1a8894ec,6734a01b51330dc1896f9bfb,2024-11-13_09h48.51.613,Tarea de género gramatical,2024.2.2,MacIntel,63.29113924,,,,,,,,,,,,,,,,,,,,,,,415.4211,416.7687,a,1,[],[],[],[],[],[],[],0.6719,1,416.7689,417.2687,,,,,,1210,MAS,DIS,150,nombre,la,l,0.6719,,417.2687,417.2688,0.010486111,-0.368459201,0,0,0,,0,174,174,309,1,,,,
,,,,,,e19bc1b4e1a15b0f512be9ca,66a626ef09d4e21e1a8894ec,6734a01b51330dc1896f9bfb,2024-11-13_09h48.51.613,Tarea de género gramatical,2024.2.2,MacIntel,63.29113924,,,,,,,,,,,,,,,,,,,,,,,417.2699,418.7184,a,1,[],[],[],[],[],[],[],0.7683,1,418.7185,419.2186,,,,,,910,MAS,DIS,150,niño,la,l,0.7683,,419.2186,419.2187,0.010486111,-0.368459201,0,0,0,,0,175,175,9,1,,,,
,,,,,,e19bc1b4e1a15b0f512be9ca,66a626ef09d4e21e1a8894ec,6734a01b51330dc1896f9bfb,2024-11-13_09h48.51.613,Tarea de género gramatical,2024.2.2,MacIntel,63.29113924,,,,,,,,,,,,,,,,,,,,,,,419.2196,420.3684,a,1,[],[],[],[],[],[],[],0.4795,1,420.3685,420.8676,,,,,,1199,MAS,AGR,150,rumbo,el,l,0.4795,,420.8677,420.8678,0.010486111,-0.368459201,0,0,0,,0,176,176,298,1,,,,
,,,,,,e19bc1b4e1a15b0f512be9ca,66a626ef09d4e21e1a8894ec,6734a01b51330dc1896f9bfb,2024-11-13_09h48.51.613,Tarea de género gramatical,2024.2.2,MacIntel,63.29113924,,,,,,,,,,,,,,,,,,,,,,,420.8688,421.9684,l,1,[],[],[],[],[],[],[],0.4298,1,421.9684,422.4679,,,,,,1227,FEM,CON,150,tienda,,a,0.4298,,422.4692,422.47,0.010486111,-0.368459201,0,0,0,,0,177,177,326,1,,,,
,,,,,,e19bc1b4e1a15b0f512be9ca,66a626ef09d4e21e1a8894ec,6734a01b51330dc1896f9bfb,2024-11-13_09h48.51.613,Tarea de género gramatical,2024.2.2,MacIntel,63.29113924,,,,,,,,,,,,,,,,,,,,,,,422.4706,423.6349,a,1,[],[],[],[],[],[],[],0.4933,1,423.6349,424.1348,,,,,,911,MAS,AGR,150,país,el,l,0.4933,,424.1348,424.1349,0.010486111,-0.368459201,0,0,0,,0,178,178,10,1,,,,
,,,,,,e19bc1b4e1a15b0f512be9ca,66a626ef09d4e21e1a8894ec,6734a01b51330dc1896f9bfb,2024-11-13_09h48.51.613,Tarea de género gramatical,2024.2.2,MacIntel,63.29113924,,,,,,,,,,,,,,,,,,,,,,,424.1359,425.3848,a,1,[],[],[],[],[],[],[],0.5714,1,425.3849,425.885,,,,,,1012,MAS,DIS,150,reto,la,l,0.5714,,425.885,425.8851,0.010486111,-0.368459201,0,0,0,,0,179,179,111,1,,,,
,,,,,,e19bc1b4e1a15b0f512be9ca,66a626ef09d4e21e1a8894ec,6734a01b51330dc1896f9bfb,2024-11-13_09h48.51.613,Tarea de género gramatical,2024.2.2,MacIntel,63.29113924,,,,,,,,,,,,,,,,,,,,,,,425.8863,426.9008,a,0,[],[],[],[],[],[],[],0.3451,0,426.9016,427.4014,,,,,,1154,FEM,AGR,150,caída,la,a,0.3451,,427.4015,427.4015,0.010486111,-0.368459201,0,0,0,,0,180,180,253,1,,,,
,,,,,,e19bc1b4e1a15b0f512be9ca,66a626ef09d4e21e1a8894ec,6734a01b51330dc1896f9bfb,2024-11-13_09h48.51.613,Tarea de género gramatical,2024.2.2,MacIntel,63.29113924,,,,,,,,,,,,,,,,,,,,,,,427.4026,428.6013,l,1,[],[],[],[],[],[],[],0.5166,1,428.6021,429.1012,,,,,,938,FEM,AGR,150,obra,la,a,0.5166,,429.1013,429.1013,0.010486111,-0.368459201,0,0,0,,0,181,181,37,1,,,,
,,,,,,e19bc1b4e1a15b0f512be9ca,66a626ef09d4e21e1a8894ec,6734a01b51330dc1896f9bfb,2024-11-13_09h48.51.613,Tarea de género gramatical,2024.2.2,MacIntel,63.29113924,,,,,,,,,,,,,,,,,,,,,,,429.102,430.1012,l,1,[],[],[],[],[],[],[],0.3296,1,430.1013,430.6012,,,,,,951,FEM,CON,150,bala,,a,0.3296,,430.6019,430.6025,0.010486111,-0.368459201,0,0,0,,0,182,182,50,1,,,,
,,,,,,e19bc1b4e1a15b0f512be9ca,66a626ef09d4e21e1a8894ec,6734a01b51330dc1896f9bfb,2024-11-13_09h48.51.613,Tarea de género gramatical,2024.2.2,MacIntel,63.29113924,,,,,,,,,,,,,,,,,,,,,,,430.6028,431.5678,l,1,[],[],[],[],[],[],[],0.2893,1,431.568,432.0679,,,,,,1028,FEM,AGR,150,leña,la,a,0.2893,,432.0679,432.068,0.010486111,-0.368459201,0,0,0,,0,183,183,127,1,,,,
,,,,,,e19bc1b4e1a15b0f512be9ca,66a626ef09d4e21e1a8894ec,6734a01b51330dc1896f9bfb,2024-11-13_09h48.51.613,Tarea de género gramatical,2024.2.2,MacIntel,63.29113924,,,,,,,,,,,,,,,,,,,,,,,432.0685,433.0678,l,1,[],[],[],[],[],[],[],0.3275,1,433.0678,433.5678,,,,,,1310,FEM,AGR,150,piedad,la,a,0.3275,,433.5678,433.5679,0.010486111,-0.368459201,0,0,0,,0,184,184,409,1,,,,
,,,,,,e19bc1b4e1a15b0f512be9ca,66a626ef09d4e21e1a8894ec,6734a01b51330dc1896f9bfb,2024-11-13_09h48.51.613,Tarea de género gramatical,2024.2.2,MacIntel,63.29113924,,,,,,,,,,,,,,,,,,,,,,,433.5685,434.5177,l,1,[],[],[],[],[],[],[],0.2671,1,434.5177,435.0177,,,,,,1172,FEM,AGR,150,oreja,la,a,0.2671,,435.0178,435.0178,0.010486111,-0.368459201,0,0,0,,0,185,185,271,1,,,,
,,,,,,e19bc1b4e1a15b0f512be9ca,66a626ef09d4e21e1a8894ec,6734a01b51330dc1896f9bfb,2024-11-13_09h48.51.613,Tarea de género gramatical,2024.2.2,MacIntel,63.29113924,,,,,,,,,,,,,,,,,,,,,,,435.0185,436.0677,a,1,[],[],[],[],[],[],[],0.3799,1,436.0678,436.5677,,,,,,1348,MAS,DIS,150,aceite,la,l,0.3799,,436.5684,436.5689,0.010486111,-0.368459201,0,0,0,,0,186,186,447,1,,,,
,,,,,,e19bc1b4e1a15b0f512be9ca,66a626ef09d4e21e1a8894ec,6734a01b51330dc1896f9bfb,2024-11-13_09h48.51.613,Tarea de género gramatical,2024.2.2,MacIntel,63.29113924,,,,,,,,,,,,,,,,,,,,,,,436.5695,437.7509,l,0,[],[],[],[],[],[],[],0.506,0,437.7515,438.2506,,,,,,1306,MAS,DIS,150,premio,la,l,0.506,,438.2506,438.2507,0.010486111,-0.368459201,0,0,0,,0,187,187,405,1,,,,
,,,,,,e19bc1b4e1a15b0f512be9ca,66a626ef09d4e21e1a8894ec,6734a01b51330dc1896f9bfb,2024-11-13_09h48.51.613,Tarea de género gramatical,2024.2.2,MacIntel,63.29113924,,,,,,,,,,,,,,,,,,,,,,,438.251,439.4841,l,1,[],[],[],[],[],[],[],0.5601,1,439.4848,439.9842,,,,,,1058,FEM,AGR,150,chica,la,a,0.5601,,439.9842,439.9843,0.010486111,-0.368459201,0,0,0,,0,188,188,157,1,,,,
,,,,,,e19bc1b4e1a15b0f512be9ca,66a626ef09d4e21e1a8894ec,6734a01b51330dc1896f9bfb,2024-11-13_09h48.51.613,Tarea de género gramatical,2024.2.2,MacIntel,63.29113924,,,,,,,,,,,,,,,,,,,,,,,439.9849,441.1507,l,0,[],[],[],[],[],[],[],0.4844,0,441.1512,441.651,,,,,,1080,MAS,CON,150,fuego,,l,0.4844,,441.651,441.6511,0.010486111,-0.368459201,0,0,0,,0,189,189,179,1,,,,
,,,,,,e19bc1b4e1a15b0f512be9ca,66a626ef09d4e21e1a8894ec,6734a01b51330dc1896f9bfb,2024-11-13_09h48.51.613,Tarea de género gramatical,2024.2.2,MacIntel,63.29113924,,,,,,,,,,,,,,,,,,,,,,,441.6521,442.8509,a,1,[],[],[],[],[],[],[],0.5266,1,442.8517,443.3508,,,,,,1092,MAS,CON,150,grupo,,l,0.5266,,443.3509,443.351,0.010486111,-0.368459201,0,0,0,,0,190,190,191,1,,,,
,,,,,,e19bc1b4e1a15b0f512be9ca,66a626ef09d4e21e1a8894ec,6734a01b51330dc1896f9bfb,2024-11-13_09h48.51.613,Tarea de género gramatical,2024.2.2,MacIntel,63.29113924,,,,,,,,,,,,,,,,,,,,,,,443.3522,444.7332,l,1,[],[],[],[],[],[],[],0.7007,1,444.7333,445.2339,,,,,,1195,FEM,DIS,150,grasa,el,a,0.7007,,445.2346,445.2353,0.010486111,-0.368459201,0,0,0,,0,191,191,294,1,,,,
,,,,,,e19bc1b4e1a15b0f512be9ca,66a626ef09d4e21e1a8894ec,6734a01b51330dc1896f9bfb,2024-11-13_09h48.51.613,Tarea de género gramatical,2024.2.2,MacIntel,63.29113924,,,,,,,,,,,,,,,,,,,,,,,445.2359,446.5672,a,1,[],[],[],[],[],[],[],0.6616,1,446.5673,447.0668,,,,,,1194,MAS,CON,150,cable,,l,0.6616,,447.0669,447.067,0.010486111,-0.368459201,0,0,0,,0,192,192,293,1,,,,
,,,,,,e19bc1b4e1a15b0f512be9ca,66a626ef09d4e21e1a8894ec,6734a01b51330dc1896f9bfb,2024-11-13_09h48.51.613,Tarea de género gramatical,2024.2.2,MacIntel,63.29113924,,,,,,,,,,,,,,,,,,,,,,,447.0677,448.3173,l,1,[],[],[],[],[],[],[],0.5764,1,448.3174,448.8173,,,,,,1239,FEM,CON,150,salida,,a,0.5764,,448.8173,448.8174,0.010486111,-0.368459201,0,0,0,,0,193,193,338,1,,,,
,,,,,,e19bc1b4e1a15b0f512be9ca,66a626ef09d4e21e1a8894ec,6734a01b51330dc1896f9bfb,2024-11-13_09h48.51.613,Tarea de género gramatical,2024.2.2,MacIntel,63.29113924,,,,,,,,,,,,,,,,,,,,,,,448.8182,449.9504,l,1,[],[],[],[],[],[],[],0.4626,1,449.9506,450.4507,,,,,,1148,FEM,AGR,150,letra,la,a,0.4626,,450.4507,450.4509,0.010486111,-0.368459201,0,0,0,,0,194,194,247,1,,,,
,,,,,,e19bc1b4e1a15b0f512be9ca,66a626ef09d4e21e1a8894ec,6734a01b51330dc1896f9bfb,2024-11-13_09h48.51.613,Tarea de género gramatical,2024.2.2,MacIntel,63.29113924,,,,,,,,,,,,,,,,,,,,,,,450.4515,451.6671,a,1,[],[],[],[],[],[],[],0.5443,1,451.6672,452.1672,,,,,,1156,MAS,DIS,150,techo,la,l,0.5443,,452.1684,452.1692,0.010486111,-0.368459201,0,0,0,,0,195,195,255,1,,,,
,,,,,,e19bc1b4e1a15b0f512be9ca,66a626ef09d4e21e1a8894ec,6734a01b51330dc1896f9bfb,2024-11-13_09h48.51.613,Tarea de género gramatical,2024.2.2,MacIntel,63.29113924,,,,,,,,,,,,,,,,,,,,,,,452.1701,453.2997,a,1,[],[],[],[],[],[],[],0.4637,1,453.2998,453.8002,,,,,,1025,MAS,AGR,150,bate,el,l,0.4637,,453.8002,453.8003,0.010486111,-0.368459201,0,0,0,,0,196,196,124,1,,,,
,,,,,,e19bc1b4e1a15b0f512be9ca,66a626ef09d4e21e1a8894ec,6734a01b51330dc1896f9bfb,2024-11-13_09h48.51.613,Tarea de género gramatical,2024.2.2,MacIntel,63.29113924,,,,,,,,,,,,,,,,,,,,,,,453.8011,455.1336,a,1,[],[],[],[],[],[],[],0.6507,1,455.1338,455.6334,,,,,,1066,MAS,DIS,150,coche,la,l,0.6507,,455.6335,455.6335,0.010486111,-0.368459201,0,0,0,,0,197,197,165,1,,,,
,,,,,,e19bc1b4e1a15b0f512be9ca,66a626ef09d4e21e1a8894ec,6734a01b51330dc1896f9bfb,2024-11-13_09h48.51.613,Tarea de género gramatical,2024.2.2,MacIntel,63.29113924,,,,,,,,,,,,,,,,,,,,,,,455.6342,456.7836,a,1,[],[],[],[],[],[],[],0.4723,1,456.7837,457.2835,,,,,,984,MAS,CON,150,mago,,l,0.4723,,457.2836,457.2838,0.010486111,-0.368459201,0,0,0,,0,198,198,83,1,,,,
,,,,,,e19bc1b4e1a15b0f512be9ca,66a626ef09d4e21e1a8894ec,6734a01b51330dc1896f9bfb,2024-11-13_09h48.51.613,Tarea de género gramatical,2024.2.2,MacIntel,63.29113924,,,,,,,,,,,,,,,,,,,,,,,457.2848,458.7501,a,1,[],[],[],[],[],[],[],0.7974,1,458.7502,459.25,,,,,,1234,MAS,DIS,150,ataque,la,l,0.7974,,459.25,459.2501,0.010486111,-0.368459201,0,0,0,,0,199,199,333,1,,,,
,,,,,,e19bc1b4e1a15b0f512be9ca,66a626ef09d4e21e1a8894ec,6734a01b51330dc1896f9bfb,2024-11-13_09h48.51.613,Tarea de género gramatical,2024.2.2,MacIntel,63.29113924,,,,,,,,,,,,,,,,,,,,,,,459.2509,460.2828,a,1,[],[],[],[],[],[],[],0.3608,1,460.2829,460.7831,,,,,,958,MAS,DIS,150,mono,la,l,0.3608,,460.7838,460.7842,0.010486111,-0.368459201,0,0,0,,0,200,200,57,1,,,,
,,,,,,e19bc1b4e1a15b0f512be9ca,66a626ef09d4e21e1a8894ec,6734a01b51330dc1896f9bfb,2024-11-13_09h48.51.613,Tarea de género gramatical,2024.2.2,MacIntel,63.29113924,,,,,,,,,,,,,,,,,,,,,,,460.7846,461.9832,l,1,[],[],[],[],[],[],[],0.5285,1,461.9833,462.4828,,,,,,925,FEM,DIS,150,nave,el,a,0.5285,,462.4828,462.4829,0.010486111,-0.368459201,0,0,0,,0,201,201,24,1,,,,
,,,,,,e19bc1b4e1a15b0f512be9ca,66a626ef09d4e21e1a8894ec,6734a01b51330dc1896f9bfb,2024-11-13_09h48.51.613,Tarea de género gramatical,2024.2.2,MacIntel,63.29113924,,,,,,,,,,,,,,,,,,,,,,,462.4836,463.5999,l,1,[],[],[],[],[],[],[],0.4423,1,463.6,464.0997,,,,,,932,FEM,AGR,150,caja,la,a,0.4423,,464.0997,464.0999,0.010486111,-0.368459201,0,0,0,,0,202,202,31,1,,,,
,,,,,,e19bc1b4e1a15b0f512be9ca,66a626ef09d4e21e1a8894ec,6734a01b51330dc1896f9bfb,2024-11-13_09h48.51.613,Tarea de género gramatical,2024.2.2,MacIntel,63.29113924,,,,,,,,,,,,,,,,,,,,,,,464.1005,465.283,a,1,[],[],[],[],[],[],[],0.5128,1,465.283,465.7832,,,,,,964,MAS,DIS,150,saco,la,l,0.5128,,465.7832,465.7834,0.010486111,-0.368459201,0,0,0,,0,203,203,63,1,,,,
,,,,,,e19bc1b4e1a15b0f512be9ca,66a626ef09d4e21e1a8894ec,6734a01b51330dc1896f9bfb,2024-11-13_09h48.51.613,Tarea de género gramatical,2024.2.2,MacIntel,63.29113924,,,,,,,,,,,,,,,,,,,,,,,465.7844,467.0329,a,1,[],[],[],[],[],[],[],0.5671,1,467.0329,467.5323,,,,,,1270,MAS,DIS,150,seguro,la,l,0.5671,,467.5336,467.5344,0.010486111,-0.368459201,0,0,0,,0,204,204,369,1,,,,
,,,,,,e19bc1b4e1a15b0f512be9ca,66a626ef09d4e21e1a8894ec,6734a01b51330dc1896f9bfb,2024-11-13_09h48.51.613,Tarea de género gramatical,2024.2.2,MacIntel,63.29113924,,,,,,,,,,,,,,,,,,,,,,,467.535,468.9161,l,1,[],[],[],[],[],[],[],0.7056,1,468.9163,469.4156,,,,,,915,FEM,CON,150,cama,,a,0.7056,,469.4156,469.4156,0.010486111,-0.368459201,0,0,0,,0,205,205,14,1,,,,
,,,,,,e19bc1b4e1a15b0f512be9ca,66a626ef09d4e21e1a8894ec,6734a01b51330dc1896f9bfb,2024-11-13_09h48.51.613,Tarea de género gramatical,2024.2.2,MacIntel,63.29113924,,,,,,,,,,,,,,,,,,,,,,,469.4163,470.9818,l,1,[],[],[],[],[],[],[],0.9006,1,470.9819,471.4825,,,,,,1081,FEM,DIS,150,tarde,el,a,0.9006,,471.4825,471.4825,0.010486111,-0.368459201,0,0,0,,0,206,206,180,1,,,,
,,,,,,e19bc1b4e1a15b0f512be9ca,66a626ef09d4e21e1a8894ec,6734a01b51330dc1896f9bfb,2024-11-13_09h48.51.613,Tarea de género gramatical,2024.2.2,MacIntel,63.29113924,,,,,,,,,,,,,,,,,,,,,,,471.4828,472.9494,l,1,[],[],[],[],[],[],[],0.7846,1,472.9495,473.449,,,,,,908,FEM,AGR,150,idea,la,a,0.7846,,473.4491,473.4492,0.010486111,-0.368459201,0,0,0,,0,207,207,7,1,,,,
,,,,,,e19bc1b4e1a15b0f512be9ca,66a626ef09d4e21e1a8894ec,6734a01b51330dc1896f9bfb,2024-11-13_09h48.51.613,Tarea de género gramatical,2024.2.2,MacIntel,63.29113924,,,,,,,,,,,,,,,,,,,,,,,473.4502,474.6659,l,1,[],[],[],[],[],[],[],0.5339,1,474.666,475.1655,,,,,,1215,FEM,CON,150,manera,,a,0.5339,,475.1656,475.1657,0.010486111,-0.368459201,0,0,0,,0,208,208,314,1,,,,
,,,,,,e19bc1b4e1a15b0f512be9ca,66a626ef09d4e21e1a8894ec,6734a01b51330dc1896f9bfb,2024-11-13_09h48.51.613,Tarea de género gramatical,2024.2.2,MacIntel,63.29113924,,,,,,,,,,,,,,,,,,,,,,,475.1664,476.4655,l,1,[],[],[],[],[],[],[],0.6298,1,476.4656,476.966,,,,,,1095,FEM,CON,150,pared,,a,0.6298,,476.9672,476.9682,0.010486111,-0.368459201,0,0,0,,0,209,209,194,1,,,,
,,,,,,e19bc1b4e1a15b0f512be9ca,66a626ef09d4e21e1a8894ec,6734a01b51330dc1896f9bfb,2024-11-13_09h48.51.613,Tarea de género gramatical,2024.2.2,MacIntel,63.29113924,,,,,,,,,,,,,,,,,,,,,,,476.9689,478.1825,a,1,[],[],[],[],[],[],[],0.5344,1,478.1826,478.6826,,,,,,1079,MAS,AGR,150,viaje,el,l,0.5344,,478.6827,478.6828,0.010486111,-0.368459201,0,0,0,,0,210,210,178,1,,,,
,,,,,,e19bc1b4e1a15b0f512be9ca,66a626ef09d4e21e1a8894ec,6734a01b51330dc1896f9bfb,2024-11-13_09h48.51.613,Tarea de género gramatical,2024.2.2,MacIntel,63.29113924,,,,,,,,,,,,,,,,,,,,,,,478.6839,479.8492,l,1,[],[],[],[],[],[],[],0.4876,1,479.8493,480.349,,,,,,1141,FEM,DIS,150,pasta,el,a,0.4876,,480.3491,480.3491,0.010486111,-0.368459201,0,0,0,,0,211,211,240,1,,,,
,,,,,,e19bc1b4e1a15b0f512be9ca,66a626ef09d4e21e1a8894ec,6734a01b51330dc1896f9bfb,2024-11-13_09h48.51.613,Tarea de género gramatical,2024.2.2,MacIntel,63.29113924,,,,,,,,,,,,,,,,,,,,,,,480.3497,481.4825,l,1,[],[],[],[],[],[],[],0.4494,1,481.4826,481.9824,,,,,,1298,FEM,AGR,150,hierba,la,a,0.4494,,481.9824,481.9826,0.010486111,-0.368459201,0,0,0,,0,212,212,397,1,,,,
,,,,,,e19bc1b4e1a15b0f512be9ca,66a626ef09d4e21e1a8894ec,6734a01b51330dc1896f9bfb,2024-11-13_09h48.51.613,Tarea de género gramatical,2024.2.2,MacIntel,63.29113924,,,,,,,,,,,,,,,,,,,,,,,481.9835,483.2822,l,1,[],[],[],[],[],[],[],0.6187,1,483.2823,483.7823,,,,,,969,FEM,CON,150,rata,,a,0.6187,,483.7836,483.7841,0.010486111,-0.368459201,0,0,0,,0,213,213,68,1,,,,
,,,,,,e19bc1b4e1a15b0f512be9ca,66a626ef09d4e21e1a8894ec,6734a01b51330dc1896f9bfb,2024-11-13_09h48.51.613,Tarea de género gramatical,2024.2.2,MacIntel,63.29113924,,,,,,,,,,,,,,,,,,,,,,,483.7845,485.1486,a,1,[],[],[],[],[],[],[],0.6831,1,485.1487,485.649,,,,,,1127,MAS,AGR,150,vuelo,el,l,0.6831,,485.649,485.6491,0.010486111,-0.368459201,0,0,0,,0,214,214,226,1,,,,
,,,,,,e19bc1b4e1a15b0f512be9ca,66a626ef09d4e21e1a8894ec,6734a01b51330dc1896f9bfb,2024-11-13_09h48.51.613,Tarea de género gramatical,2024.2.2,MacIntel,63.29113924,,,,,,,,,,,,,,,,,,,,,,,485.6497,486.9656,l,1,[],[],[],[],[],[],[],0.6361,1,486.9657,487.4655,,,,,,1135,FEM,DIS,150,torre,el,a,0.6361,,487.4656,487.4657,0.010486111,-0.368459201,0,0,0,,0,215,215,234,1,,,,
,,,,,,e19bc1b4e1a15b0f512be9ca,66a626ef09d4e21e1a8894ec,6734a01b51330dc1896f9bfb,2024-11-13_09h48.51.613,Tarea de género gramatical,2024.2.2,MacIntel,63.29113924,,,,,,,,,,,,,,,,,,,,,,,487.4667,488.9988,a,1,[],[],[],[],[],[],[],0.8517,1,488.9989,489.4988,,,,,,1132,MAS,DIS,150,calor,la,l,0.8517,,489.4988,489.4989,0.010486111,-0.368459201,0,0,0,,0,216,216,231,1,,,,
,,,,,,e19bc1b4e1a15b0f512be9ca,66a626ef09d4e21e1a8894ec,6734a01b51330dc1896f9bfb,2024-11-13_09h48.51.613,Tarea de género gramatical,2024.2.2,MacIntel,63.29113924,,,,,,,,,,,,,,,,,,,,,,,489.4997,490.8486,a,1,[],[],[],[],[],[],[],0.6681,1,490.8486,491.3485,,,,,,1002,MAS,CON,150,coro,,l,0.6681,,491.3486,491.3487,0.010486111,-0.368459201,0,0,0,,0,217,217,101,1,,,,
,,,,,,e19bc1b4e1a15b0f512be9ca,66a626ef09d4e21e1a8894ec,6734a01b51330dc1896f9bfb,2024-11-13_09h48.51.613,Tarea de género gramatical,2024.2.2,MacIntel,63.29113924,,,,,,,,,,,,,,,,,,,,,,,491.3493,492.7818,a,1,[],[],[],[],[],[],[],0.7507,1,492.7818,493.282,,,,,,1134,MAS,CON,150,héroe,,l,0.7507,,493.2833,493.2839,0.010486111,-0.368459201,0,0,0,,0,218,218,233,1,,,,
,,,,,,e19bc1b4e1a15b0f512be9ca,66a626ef09d4e21e1a8894ec,6734a01b51330dc1896f9bfb,2024-11-13_09h48.51.613,Tarea de género gramatical,2024.2.2,MacIntel,63.29113924,,,,,,,,,,,,,,,,,,,,,,,493.2843,494.4818,a,1,[],[],[],[],[],[],[],0.5288,1,494.4819,494.9817,,,,,,983,MAS,AGR,150,nene,el,l,0.5288,,494.9817,494.9817,0.010486111,-0.368459201,0,0,0,,0,219,219,82,1,,,,
,,,,,,e19bc1b4e1a15b0f512be9ca,66a626ef09d4e21e1a8894ec,6734a01b51330dc1896f9bfb,2024-11-13_09h48.51.613,Tarea de género gramatical,2024.2.2,MacIntel,63.29113924,,,,,,,,,,,,,,,,,,,,,,,494.9824,495.9982,l,1,[],[],[],[],[],[],[],0.3461,1,495.9984,496.4981,,,,,,1201,FEM,DIS,150,verdad,el,a,0.3461,,496.4981,496.4982,0.010486111,-0.368459201,0,0,0,,0,220,220,300,1,,,,
,,,,,,e19bc1b4e1a15b0f512be9ca,66a626ef09d4e21e1a8894ec,6734a01b51330dc1896f9bfb,2024-11-13_09h48.51.613,Tarea de género gramatical,2024.2.2,MacIntel,63.29113924,,,,,,,,,,,,,,,,,,,,,,,496.4987,497.6984,a,1,[],[],[],[],[],[],[],0.5225,1,497.6986,498.1984,,,,,,1180,MAS,DIS,150,salón,la,l,0.5225,,498.1985,498.1987,0.010486111,-0.368459201,0,0,0,,0,221,221,279,1,,,,
,,,,,,e19bc1b4e1a15b0f512be9ca,66a626ef09d4e21e1a8894ec,6734a01b51330dc1896f9bfb,2024-11-13_09h48.51.613,Tarea de género gramatical,2024.2.2,MacIntel,63.29113924,,,,,,,,,,,,,,,,,,,,,,,498.1997,499.3318,l,1,[],[],[],[],[],[],[],0.4637,1,499.3318,499.8314,,,,,,1160,FEM,AGR,150,barra,la,a,0.4637,,499.8322,499.8326,0.010486111,-0.368459201,0,0,0,,0,222,222,259,1,,,,
,,,,,,e19bc1b4e1a15b0f512be9ca,66a626ef09d4e21e1a8894ec,6734a01b51330dc1896f9bfb,2024-11-13_09h48.51.613,Tarea de género gramatical,2024.2.2,MacIntel,63.29113924,,,,,,,,,,,,,,,,,,,,,,,499.8332,500.898,a,1,[],[],[],[],[],[],[],0.3889,1,500.8982,501.3983,,,,,,942,MAS,CON,150,show,,l,0.3889,,501.3984,501.3985,0.010486111,-0.368459201,0,0,0,,0,223,223,41,1,,,,
,,,,,,e19bc1b4e1a15b0f512be9ca,66a626ef09d4e21e1a8894ec,6734a01b51330dc1896f9bfb,2024-11-13_09h48.51.613,Tarea de género gramatical,2024.2.2,MacIntel,63.29113924,,,,,,,,,,,,,,,,,,,,,,,501.3995,502.4644,l,1,[],[],[],[],[],[],[],0.3844,1,502.4644,502.9646,,,,,,1221,FEM,CON,150,comida,,a,0.3844,,502.9647,502.9647,0.010486111,-0.368459201,0,0,0,,0,224,224,320,1,,,,
,,,,,,e19bc1b4e1a15b0f512be9ca,66a626ef09d4e21e1a8894ec,6734a01b51330dc1896f9bfb,2024-11-13_09h48.51.613,Tarea de género gramatical,2024.2.2,MacIntel,63.29113924,,,,,,,,,,,,,,,,,,,,,,,502.9654,504.048,a,1,[],[],[],[],[],[],[],0.4103,1,504.0481,504.5481,,,,,,1252,MAS,DIS,150,estilo,la,l,0.4103,,504.5481,504.5482,0.010486111,-0.368459201,0,0,0,,0,225,225,351,1,,,,
,,,,,,e19bc1b4e1a15b0f512be9ca,66a626ef09d4e21e1a8894ec,6734a01b51330dc1896f9bfb,2024-11-13_09h48.51.613,Tarea de género gramatical,2024.2.2,MacIntel,63.29113924,,,,,,,,,,,,,,,,,,,,,,,504.5488,505.6813,l,0,[],[],[],[],[],[],[],0.4512,0,505.6821,506.1812,,,,,,976,MAS,DIS,150,lujo,la,l,0.4512,,506.1812,506.1813,0.010486111,-0.368459201,0,0,0,,0,226,226,75,1,,,,
,,,,,,e19bc1b4e1a15b0f512be9ca,66a626ef09d4e21e1a8894ec,6734a01b51330dc1896f9bfb,2024-11-13_09h48.51.613,Tarea de género gramatical,2024.2.2,MacIntel,63.29113924,,,,,,,,,,,,,,,,,,,,,,,506.1819,507.2978,a,1,[],[],[],[],[],[],[],0.4445,1,507.2983,507.7979,,,,,,1074,MAS,CON,150,perro,,l,0.4445,,507.7989,507.7994,0.010486111,-0.368459201,0,0,0,,0,227,227,173,1,,,,
,,,,,,e19bc1b4e1a15b0f512be9ca,66a626ef09d4e21e1a8894ec,6734a01b51330dc1896f9bfb,2024-11-13_09h48.51.613,Tarea de género gramatical,2024.2.2,MacIntel,63.29113924,,,,,,,,,,,,,,,,,,,,,,,507.7999,509.0979,l,1,[],[],[],[],[],[],[],0.6172,1,509.098,509.5977,,,,,,1317,FEM,CON,150,cabaña,,a,0.6172,,509.5977,509.5978,0.010486111,-0.368459201,0,0,0,,0,228,228,416,1,,,,
,,,,,,e19bc1b4e1a15b0f512be9ca,66a626ef09d4e21e1a8894ec,6734a01b51330dc1896f9bfb,2024-11-13_09h48.51.613,Tarea de género gramatical,2024.2.2,MacIntel,63.29113924,,,,,,,,,,,,,,,,,,,,,,,509.5984,510.9471,a,1,[],[],[],[],[],[],[],0.6687,1,510.9472,511.4478,,,,,,1342,MAS,DIS,150,cuadro,la,l,0.6687,,511.4479,511.448,0.010486111,-0.368459201,0,0,0,,0,229,229,441,1,,,,
,,,,,,e19bc1b4e1a15b0f512be9ca,66a626ef09d4e21e1a8894ec,6734a01b51330dc1896f9bfb,2024-11-13_09h48.51.613,Tarea de género gramatical,2024.2.2,MacIntel,63.29113924,,,,,,,,,,,,,,,,,,,,,,,511.4491,512.797,a,1,[],[],[],[],[],[],[],0.6755,1,512.7971,513.2977,,,,,,1264,MAS,DIS,150,viento,la,l,0.6755,,513.2977,513.2978,0.010486111,-0.368459201,0,0,0,,0,230,230,363,1,,,,
,,,,,,e19bc1b4e1a15b0f512be9ca,66a626ef09d4e21e1a8894ec,6734a01b51330dc1896f9bfb,2024-11-13_09h48.51.613,Tarea de género gramatical,2024.2.2,MacIntel,63.29113924,,,,,,,,,,,,,,,,,,,,,,,513.2987,514.3642,l,1,[],[],[],[],[],[],[],0.389,1,514.3643,514.8643,,,,,,1165,FEM,DIS,150,rueda,el,a,0.389,,514.8653,514.8662,0.010486111,-0.368459201,0,0,0,,0,231,231,264,1,,,,
,,,,,,e19bc1b4e1a15b0f512be9ca,66a626ef09d4e21e1a8894ec,6734a01b51330dc1896f9bfb,2024-11-13_09h48.51.613,Tarea de género gramatical,2024.2.2,MacIntel,63.29113924,,,,,,,,,,,,,,,,,,,,,,,514.8668,516.0307,l,1,[],[],[],[],[],[],[],0.4842,1,516.0308,516.5309,,,,,,1047,FEM,CON,150,grúa,,a,0.4842,,516.5309,516.531,0.010486111,-0.368459201,0,0,0,,0,232,232,146,1,,,,
,,,,,,e19bc1b4e1a15b0f512be9ca,66a626ef09d4e21e1a8894ec,6734a01b51330dc1896f9bfb,2024-11-13_09h48.51.613,Tarea de género gramatical,2024.2.2,MacIntel,63.29113924,,,,,,,,,,,,,,,,,,,,,,,516.5316,517.6307,a,1,[],[],[],[],[],[],[],0.4272,1,517.6307,518.1309,,,,,,1235,MAS,AGR,150,montón,el,l,0.4272,,518.1309,518.131,0.010486111,-0.368459201,0,0,0,,0,233,233,334,1,,,,
,,,,,,e19bc1b4e1a15b0f512be9ca,66a626ef09d4e21e1a8894ec,6734a01b51330dc1896f9bfb,2024-11-13_09h48.51.613,Tarea de género gramatical,2024.2.2,MacIntel,63.29113924,,,,,,,,,,,,,,,,,,,,,,,518.1317,519.5468,a,1,[],[],[],[],[],[],[],0.7379,1,519.5469,520.0473,,,,,,1090,MAS,DIS,150,campo,la,l,0.7379,,520.0473,520.0474,0.010486111,-0.368459201,0,0,0,,0,234,234,189,1,,,,
,,,,,,e19bc1b4e1a15b0f512be9ca,66a626ef09d4e21e1a8894ec,6734a01b51330dc1896f9bfb,2024-11-13_09h48.51.613,Tarea de género gramatical,2024.2.2,MacIntel,63.29113924,,,,,,,,,,,,,,,,,,,,,,,520.0481,521.2138,a,1,[],[],[],[],[],[],[],0.4949,1,521.2139,521.7136,,,,,,1242,MAS,CON,150,abuelo,,l,0.4949,,521.7137,521.7138,0.010486111,-0.368459201,0,0,0,,0,235,235,341,1,,,,
,,,,,,e19bc1b4e1a15b0f512be9ca,66a626ef09d4e21e1a8894ec,6734a01b51330dc1896f9bfb,2024-11-13_09h48.51.613,Tarea de género gramatical,2024.2.2,MacIntel,63.29113924,,,,,,,,,,,,,,,,,,,,,,,521.7148,523.0973,l,1,[],[],[],[],[],[],[],0.7132,1,523.0974,523.5973,,,,,,1027,FEM,DIS,150,cuna,el,a,0.7132,,523.5985,523.5993,0.010486111,-0.368459201,0,0,0,,0,236,236,126,1,,,,
,,,,,,e19bc1b4e1a15b0f512be9ca,66a626ef09d4e21e1a8894ec,6734a01b51330dc1896f9bfb,2024-11-13_09h48.51.613,Tarea de género gramatical,2024.2.2,MacIntel,63.29113924,,,,,,,,,,,,,,,,,,,,,,,523.6001,525.0804,a,1,[],[],[],[],[],[],[],0.8105,1,525.0805,525.5803,,,,,,1042,MAS,DIS,150,lodo,la,l,0.8105,,525.5804,525.5804,0.010486111,-0.368459201,0,0,0,,0,237,237,141,1,,,,
,,,,,,e19bc1b4e1a15b0f512be9ca,66a626ef09d4e21e1a8894ec,6734a01b51330dc1896f9bfb,2024-11-13_09h48.51.613,Tarea de género gramatical,2024.2.2,MacIntel,63.29113924,,,,,,,,,,,,,,,,,,,,,,,525.5812,526.6965,l,1,[],[],[],[],[],[],[],0.4455,1,526.6966,527.1971,,,,,,1285,FEM,DIS,150,muñeca,el,a,0.4455,,527.1972,527.1973,0.010486111,-0.368459201,0,0,0,,0,238,238,384,1,,,,
,,,,,,e19bc1b4e1a15b0f512be9ca,66a626ef09d4e21e1a8894ec,6734a01b51330dc1896f9bfb,2024-11-13_09h48.51.613,Tarea de género gramatical,2024.2.2,MacIntel,63.29113924,,,,,,,,,,,,,,,,,,,,,,,527.1983,528.3304,a,0,[],[],[],[],[],[],[],0.4526,0,528.3312,528.8303,,,,,,962,FEM,AGR,150,sopa,la,a,0.4526,,528.8303,528.8304,0.010486111,-0.368459201,0,0,0,,0,239,239,61,1,,,,
,,,,,,e19bc1b4e1a15b0f512be9ca,66a626ef09d4e21e1a8894ec,6734a01b51330dc1896f9bfb,2024-11-13_09h48.51.613,Tarea de género gramatical,2024.2.2,MacIntel,63.29113924,,,,,,,,,,,,,,,,,,,,,,,528.831,529.9635,a,1,[],[],[],[],[],[],[],0.4515,1,529.9643,530.4636,,,,,,1272,MAS,CON,150,delito,,l,0.4515,,530.4648,530.4653,0.010486111,-0.368459201,0,0,0,,0,240,240,371,1,,,,
,,,,,,e19bc1b4e1a15b0f512be9ca,66a626ef09d4e21e1a8894ec,6734a01b51330dc1896f9bfb,2024-11-13_09h48.51.613,Tarea de género gramatical,2024.2.2,MacIntel,63.29113924,,,,,,,,,,,,,,,,,,,,,,,530.4657,531.7465,a,1,[],[],[],[],[],[],[],0.604,1,531.7466,532.2468,,,,,,1030,MAS,DIS,150,yate,la,l,0.604,,532.2468,532.2469,0.010486111,-0.368459201,0,0,0,,0,241,241,129,1,,,,
,,,,,,e19bc1b4e1a15b0f512be9ca,66a626ef09d4e21e1a8894ec,6734a01b51330dc1896f9bfb,2024-11-13_09h48.51.613,Tarea de género gramatical,2024.2.2,MacIntel,63.29113924,,,,,,,,,,,,,,,,,,,,,,,532.2478,533.3464,a,1,[],[],[],[],[],[],[],0.428,1,533.3465,533.8465,,,,,,1319,MAS,AGR,150,cuento,el,l,0.428,,533.8465,533.8467,0.010486111,-0.368459201,0,0,0,,0,242,242,418,1,,,,
,,,,,,e19bc1b4e1a15b0f512be9ca,66a626ef09d4e21e1a8894ec,6734a01b51330dc1896f9bfb,2024-11-13_09h48.51.613,Tarea de género gramatical,2024.2.2,MacIntel,63.29113924,,,,,,,,,,,,,,,,,,,,,,,533.8474,535.0799,l,1,[],[],[],[],[],[],[],0.5508,1,535.08,535.58,,,,,,1269,FEM,CON,150,camisa,,a,0.5508,,535.5802,535.5802,0.010486111,-0.368459201,0,0,0,,0,243,243,368,1,,,,
,,,,,,e19bc1b4e1a15b0f512be9ca,66a626ef09d4e21e1a8894ec,6734a01b51330dc1896f9bfb,2024-11-13_09h48.51.613,Tarea de género gramatical,2024.2.2,MacIntel,63.29113924,,,,,,,,,,,,,,,,,,,,,,,535.5811,536.7133,a,1,[],[],[],[],[],[],[],0.4632,1,536.7134,537.2133,,,,,,1289,MAS,AGR,150,tamaño,el,l,0.4632,,537.2134,537.2135,0.010486111,-0.368459201,0,0,0,,0,244,244,388,1,,,,
,,,,,,e19bc1b4e1a15b0f512be9ca,66a626ef09d4e21e1a8894ec,6734a01b51330dc1896f9bfb,2024-11-13_09h48.51.613,Tarea de género gramatical,2024.2.2,MacIntel,63.29113924,,,,,,,,,,,,,,,,,,,,,,,537.2146,538.5465,a,1,[],[],[],[],[],[],[],0.6606,1,538.5465,539.0466,,,,,,1228,MAS,DIS,150,asunto,la,l,0.6606,,539.0478,539.0487,0.010486111,-0.368459201,0,0,0,,0,245,245,327,1,,,,
,,,,,,e19bc1b4e1a15b0f512be9ca,66a626ef09d4e21e1a8894ec,6734a01b51330dc1896f9bfb,2024-11-13_09h48.51.613,Tarea de género gramatical,2024.2.2,MacIntel,63.29113924,,,,,,,,,,,,,,,,,,,,,,,539.0492,540.1297,l,1,[],[],[],[],[],[],[],0.4106,1,540.1299,540.6297,,,,,,1321,FEM,DIS,150,novela,el,a,0.4106,,540.6298,540.6298,0.010486111,-0.368459201,0,0,0,,0,246,246,420,1,,,,
,,,,,,e19bc1b4e1a15b0f512be9ca,66a626ef09d4e21e1a8894ec,6734a01b51330dc1896f9bfb,2024-11-13_09h48.51.613,Tarea de género gramatical,2024.2.2,MacIntel,63.29113924,,,,,,,,,,,,,,,,,,,,,,,540.6308,541.7963,l,1,[],[],[],[],[],[],[],0.495,1,541.7964,542.2965,,,,,,1093,FEM,DIS,150,bolsa,el,a,0.495,,542.2965,542.2966,0.010486111,-0.368459201,0,0,0,,0,247,247,192,1,,,,
,,,,,,e19bc1b4e1a15b0f512be9ca,66a626ef09d4e21e1a8894ec,6734a01b51330dc1896f9bfb,2024-11-13_09h48.51.613,Tarea de género gramatical,2024.2.2,MacIntel,63.29113924,,,,,,,,,,,,,,,,,,,,,,,542.2976,543.4119,a,1,[],[],[],[],[],[],[],0.4441,1,543.412,543.913,,,,,,1318,MAS,DIS,150,pájaro,la,l,0.4441,,543.9132,543.9133,0.010486111,-0.368459201,0,0,0,,0,248,248,417,1,,,,
