counterbalancing_condition,consent_prescreening.block_1/declare_consent,consent_prescreening.block_1/age_years,consent_prescreening.block_1/gender,consent_prescreening.block_1/language_disorder,consent_prescreening.block_1/first_language,PROLIFIC_PID,STUDY_ID,SESSION_ID,date,expName,psychopyVersion,OS,frameRate,check_prescreening_answers.started,check_prescreening_answers.stopped,Instructions.started,Instructions.stopped,instr_done_keyboard.keys,instr_done_keyboard.rt,instr_done_keyboard.duration,instr_done_touch.x,instr_done_touch.y,instr_done_touch.leftButton,instr_done_touch.midButton,instr_done_touch.rightButton,instruction_pages.thisRepN,instruction_pages.thisTrialN,instruction_pages.thisN,instruction_pages.thisIndex,instruction_pages.ran,pageN,phase,instruct_text,has_image,instruct_image,presentTrial.started,presentTrial.stopped,response.keys,response.corr,touch_resp.x,touch_resp.y,touch_resp.leftButton,touch_resp.midButton,touch_resp.rightButton,touch_resp.time,touch_resp.clicked_name,rt,corr,feedback.started,feedback.stopped,practice_trials.thisRepN,practice_trials.thisTrialN,practice_trials.thisN,practice_trials.thisIndex,practice_trials.ran,TrialID,StimulusType,Condition,PrimeDuration,Prime,Flanker,corrAns,response.rt,response.duration,Break.started,Break.stopped,break_done_touch.x,break_done_touch.y,break_done_touch.leftButton,break_done_touch.midButton,break_done_touch.rightButton,break_done_keyboard.keys,experiment_trials.thisRepN,experiment_trials.thisTrialN,experiment_trials.thisN,experiment_trials.thisIndex,experiment_trials.ran,break_done_keyboard.rt,break_done_keyboard.duration,End.started,End.stopped
1,"[""over_18"",""comfortable"",""read_info"",""consent_given""]",27,F,"[""none""]","[""spanish""]",e7cc91fb7de369acb548daf2,66a626ef09d4e21e1a8894ec,6734e037acf809f2a2f552fd,2024-11-13_11h29.42.074,Tarea de género gramatical,2024.2.2,MacIntel,71.42857143,,,,,,,,,,,,,,,,,,,,,,,,,,,,,,,,,,,,,,,,,,,,,,,,,,,,,,,,,,,,,,,,,,,,
,,,,,,e7cc91fb7de369acb548daf2,66a626ef09d4e21e1a8894ec,6734e037acf809f2a2f552fd,2024-11-13_11h29.42.074,Tarea de género gramatical,2024.2.2,MacIntel,71.42857143,17.693,17.694,,,,,,,,,,,,,,,,,,,,,,,,,,,,,,,,,,,,,,,,,,,,,,,,,,,,,,,,,,,,,,,,,,
,,,,,,e7cc91fb7de369acb548daf2,66a626ef09d4e21e1a8894ec,6734e037acf809f2a2f552fd,2024-11-13_11h29.42.074,Tarea de género gramatical,2024.2.2,MacIntel,71.42857143,,,17.722,28.648,space,10.856,,0.08875,-0.335,0,0,0,0,0,0,0,1,1,instructions,"INSTRUCCIONES
Va a realizar una prueba de selección gramatical. Desde el comienzo de la prueba mire siempre al centro de la pantalla. Al cabo de un momento, aparecerán palabras. La tarea consiste en determinar si la palabra del centro (siempre será un sustantivo), pertenece al género masculino o femenino.

Pulse la tecla ESPACIO o toque el botón de abajo para continuar.",0,keyboardresponseFM.png,,,,,,,,,,,,,,,,,,,,,,,,,,,,,,,,,,,,,,,,,,,,,,
,,,,,,e7cc91fb7de369acb548daf2,66a626ef09d4e21e1a8894ec,6734e037acf809f2a2f552fd,2024-11-13_11h29.42.074,Tarea de género gramatical,2024.2.2,MacIntel,71.42857143,,,28.651,36.744,space,7.988,,0.08875,-0.335,0,0,0,0,1,1,1,1,2,instructions,"Si su dispositivo tiene teclado, pulse la tecla ""A"" para las palabras en femenino (por ejemplo: ""mano"") y la tecla ""L"" para las palabras en masculino(por ejemplo: ""arroz"").
Pulse la tecla ESPACIO o toque el botón de abajo para continuar.",1,keyboardresponseFM.png,,,,,,,,,,,,,,,,,,,,,,,,,,,,,,,,,,,,,,,,,,,,,,
,,,,,,e7cc91fb7de369acb548daf2,66a626ef09d4e21e1a8894ec,6734e037acf809f2a2f552fd,2024-11-13_11h29.42.074,Tarea de género gramatical,2024.2.2,MacIntel,71.42857143,,,36.747,40.911,space,4.071,,0.08875,-0.335,0,0,0,0,2,2,2,1,3,instructions,"Si utiliza un dispositivo sólo táctil, colóquelo en horizontal y utilice los botones de la pantalla. No utilice el ratón.
Pulse la tecla ESPACIO o toque el botón de abajo para continuar.",2,touchresponseFM.png,,,,,,,,,,,,,,,,,,,,,,,,,,,,,,,,,,,,,,,,,,,,,,
,,,,,,e7cc91fb7de369acb548daf2,66a626ef09d4e21e1a8894ec,6734e037acf809f2a2f552fd,2024-11-13_11h29.42.074,Tarea de género gramatical,2024.2.2,MacIntel,71.42857143,,,40.914,61.673,space,20.723,,0.08875,-0.335,0,0,0,0,3,3,3,1,4,instructions,"Es muy importante que responda con la mayor rapidez y precisión posibles, ya que cada cadena de letras sólo estará en pantalla durante un instante. Si no responde en ese tiempo, aparecerá el mensaje ""Muy lento"" y el experimento pasará a la siguiente palabra. Los primeros 15 intentos serán de práctica y habrá dos descansos durante la prueba.
Pulse la tecla ESPACIO o toque el botón de abajo para iniciar la parte de práctica.",0,keyboardresponseFM.png,,,,,,,,,,,,,,,,,,,,,,,,,,,,,,,,,,,,,,,,,,,,,,
,,,,,,e7cc91fb7de369acb548daf2,66a626ef09d4e21e1a8894ec,6734e037acf809f2a2f552fd,2024-11-13_11h29.42.074,Tarea de género gramatical,2024.2.2,MacIntel,71.42857143,,,,,,,,,,,,,,,,,,,,,,,61.707,64.359,,0,[],[],[],[],[],[],[],,-1,64.36,64.86,0,0,0,6,1,2007,FEM,AGR,150,navaja,la,a,,,,,,,,,,,,,,,,,,,
,,,,,,e7cc91fb7de369acb548daf2,66a626ef09d4e21e1a8894ec,6734e037acf809f2a2f552fd,2024-11-13_11h29.42.074,Tarea de género gramatical,2024.2.2,MacIntel,71.42857143,,,,,,,,,,,,,,,,,,,,,,,64.861,66.442,a,0,[],[],[],[],[],[],[],0.921,0,66.454,66.94,0,1,1,8,1,2009,MAS,DIS,150,puerto,la,l,0.921,,,,,,,,,,,,,,,,,,
,,,,,,e7cc91fb7de369acb548daf2,66a626ef09d4e21e1a8894ec,6734e037acf809f2a2f552fd,2024-11-13_11h29.42.074,Tarea de género gramatical,2024.2.2,MacIntel,71.42857143,,,,,,,,,,,,,,,,,,,,,,,66.941,68.433,l,1,[],[],[],[],[],[],[],0.806,1,68.434,68.934,0,2,2,13,1,2014,MAS,CON,150,siglo,,l,0.806,,,,,,,,,,,,,,,,,,
,,,,,,e7cc91fb7de369acb548daf2,66a626ef09d4e21e1a8894ec,6734e037acf809f2a2f552fd,2024-11-13_11h29.42.074,Tarea de género gramatical,2024.2.2,MacIntel,71.42857143,,,,,,,,,,,,,,,,,,,,,,,68.935,70.265,a,1,[],[],[],[],[],[],[],0.657,1,70.265,70.76,0,3,3,2,1,2003,FEM,DIS,150,daga,el,a,0.657,,,,,,,,,,,,,,,,,,
,,,,,,e7cc91fb7de369acb548daf2,66a626ef09d4e21e1a8894ec,6734e037acf809f2a2f552fd,2024-11-13_11h29.42.074,Tarea de género gramatical,2024.2.2,MacIntel,71.42857143,,,,,,,,,,,,,,,,,,,,,,,70.763,72.078,l,0,[],[],[],[],[],[],[],0.656,0,72.079,72.581,0,4,4,5,1,2006,FEM,DIS,150,serie,el,a,0.656,,,,,,,,,,,,,,,,,,
,,,,,,e7cc91fb7de369acb548daf2,66a626ef09d4e21e1a8894ec,6734e037acf809f2a2f552fd,2024-11-13_11h29.42.074,Tarea de género gramatical,2024.2.2,MacIntel,71.42857143,,,,,,,,,,,,,,,,,,,,,,,72.583,74.028,a,1,[],[],[],[],[],[],[],0.769,1,74.029,74.529,0,5,5,7,1,2008,FEM,CON,150,siesta,,a,0.769,,,,,,,,,,,,,,,,,,
,,,,,,e7cc91fb7de369acb548daf2,66a626ef09d4e21e1a8894ec,6734e037acf809f2a2f552fd,2024-11-13_11h29.42.074,Tarea de género gramatical,2024.2.2,MacIntel,71.42857143,,,,,,,,,,,,,,,,,,,,,,,74.531,75.815,l,1,[],[],[],[],[],[],[],0.607,1,75.815,76.311,0,6,6,9,1,2010,MAS,AGR,150,vecino,el,l,0.607,,,,,,,,,,,,,,,,,,
,,,,,,e7cc91fb7de369acb548daf2,66a626ef09d4e21e1a8894ec,6734e037acf809f2a2f552fd,2024-11-13_11h29.42.074,Tarea de género gramatical,2024.2.2,MacIntel,71.42857143,,,,,,,,,,,,,,,,,,,,,,,76.313,77.85,l,1,[],[],[],[],[],[],[],0.85,1,77.85,78.346,0,7,7,11,1,2012,MAS,DIS,150,clima,la,l,0.85,,,,,,,,,,,,,,,,,,
,,,,,,e7cc91fb7de369acb548daf2,66a626ef09d4e21e1a8894ec,6734e037acf809f2a2f552fd,2024-11-13_11h29.42.074,Tarea de género gramatical,2024.2.2,MacIntel,71.42857143,,,,,,,,,,,,,,,,,,,,,,,78.348,79.547,a,0,[],[],[],[],[],[],[],0.526,0,79.55,80.047,0,8,8,10,1,2011,MAS,CON,150,canal,,l,0.526,,,,,,,,,,,,,,,,,,
,,,,,,e7cc91fb7de369acb548daf2,66a626ef09d4e21e1a8894ec,6734e037acf809f2a2f552fd,2024-11-13_11h29.42.074,Tarea de género gramatical,2024.2.2,MacIntel,71.42857143,,,,,,,,,,,,,,,,,,,,,,,80.048,81.567,l,1,[],[],[],[],[],[],[],0.849,1,81.568,82.054,0,9,9,14,1,2015,MAS,DIS,150,robot,la,l,0.849,,,,,,,,,,,,,,,,,,
,,,,,,e7cc91fb7de369acb548daf2,66a626ef09d4e21e1a8894ec,6734e037acf809f2a2f552fd,2024-11-13_11h29.42.074,Tarea de género gramatical,2024.2.2,MacIntel,71.42857143,,,,,,,,,,,,,,,,,,,,,,,82.054,83.499,l,1,[],[],[],[],[],[],[],0.767,1,83.499,84,0,10,10,12,1,2013,MAS,AGR,150,acero,el,l,0.767,,,,,,,,,,,,,,,,,,
,,,,,,e7cc91fb7de369acb548daf2,66a626ef09d4e21e1a8894ec,6734e037acf809f2a2f552fd,2024-11-13_11h29.42.074,Tarea de género gramatical,2024.2.2,MacIntel,71.42857143,,,,,,,,,,,,,,,,,,,,,,,84.002,85.4,a,1,[],[],[],[],[],[],[],0.718,1,85.401,85.9,0,11,11,1,1,2002,FEM,CON,150,pala,,a,0.718,,,,,,,,,,,,,,,,,,
,,,,,,e7cc91fb7de369acb548daf2,66a626ef09d4e21e1a8894ec,6734e037acf809f2a2f552fd,2024-11-13_11h29.42.074,Tarea de género gramatical,2024.2.2,MacIntel,71.42857143,,,,,,,,,,,,,,,,,,,,,,,85.903,87.701,a,1,[],[],[],[],[],[],[],1.135,1,87.702,88.201,0,12,12,3,1,2004,FEM,AGR,150,venta,la,a,1.135,,,,,,,,,,,,,,,,,,
,,,,,,e7cc91fb7de369acb548daf2,66a626ef09d4e21e1a8894ec,6734e037acf809f2a2f552fd,2024-11-13_11h29.42.074,Tarea de género gramatical,2024.2.2,MacIntel,71.42857143,,,,,,,,,,,,,,,,,,,,,,,88.201,89.47,a,1,[],[],[],[],[],[],[],0.601,1,89.47,89.969,0,13,13,4,1,2005,FEM,CON,150,placa,,a,0.601,,,,,,,,,,,,,,,,,,
,,,,,,e7cc91fb7de369acb548daf2,66a626ef09d4e21e1a8894ec,6734e037acf809f2a2f552fd,2024-11-13_11h29.42.074,Tarea de género gramatical,2024.2.2,MacIntel,71.42857143,,,,,,,,,,,,,,,,,,,,,,,89.972,91.304,a,1,[],[],[],[],[],[],[],0.662,1,91.305,91.803,0,14,14,0,1,2001,FEM,AGR,150,nuca,la,a,0.662,,,,,,,,,,,,,,,,,,
,,,,,,e7cc91fb7de369acb548daf2,66a626ef09d4e21e1a8894ec,6734e037acf809f2a2f552fd,2024-11-13_11h29.42.074,Tarea de género gramatical,2024.2.2,MacIntel,71.42857143,,,94.123,95.527,space,1.365,,0.08875,-0.335,0,0,0,,,,,,,,,,,95.589,97.089,l,1,[],[],[],[],[],[],[],0.833,1,97.089,97.589,,,,,,654,MAS,AGR,150,papel,el,l,0.833,,97.593,97.597,0.08875,-0.335,0,0,0,,0,0,0,203,1,,,,
,,,,,,e7cc91fb7de369acb548daf2,66a626ef09d4e21e1a8894ec,6734e037acf809f2a2f552fd,2024-11-13_11h29.42.074,Tarea de género gramatical,2024.2.2,MacIntel,71.42857143,,,,,,,,,,,,,,,,,,,,,,,97.598,98.689,a,1,[],[],[],[],[],[],[],0.418,1,98.689,99.189,,,,,,465,FEM,AGR,150,cama,la,a,0.418,,99.189,99.19,0.08875,-0.335,0,0,0,,0,1,1,14,1,,,,
,,,,,,e7cc91fb7de369acb548daf2,66a626ef09d4e21e1a8894ec,6734e037acf809f2a2f552fd,2024-11-13_11h29.42.074,Tarea de género gramatical,2024.2.2,MacIntel,71.42857143,,,,,,,,,,,,,,,,,,,,,,,99.191,100.657,a,1,[],[],[],[],[],[],[],0.786,1,100.657,101.159,,,,,,566,FEM,DIS,150,nube,el,a,0.786,,101.16,101.162,0.08875,-0.335,0,0,0,,0,2,2,115,1,,,,
,,,,,,e7cc91fb7de369acb548daf2,66a626ef09d4e21e1a8894ec,6734e037acf809f2a2f552fd,2024-11-13_11h29.42.074,Tarea de género gramatical,2024.2.2,MacIntel,71.42857143,,,,,,,,,,,,,,,,,,,,,,,101.163,102.441,l,1,[],[],[],[],[],[],[],0.601,1,102.442,102.943,,,,,,762,MAS,AGR,150,equipo,el,l,0.601,,102.943,102.943,0.08875,-0.335,0,0,0,,0,3,3,311,1,,,,
,,,,,,e7cc91fb7de369acb548daf2,66a626ef09d4e21e1a8894ec,6734e037acf809f2a2f552fd,2024-11-13_11h29.42.074,Tarea de género gramatical,2024.2.2,MacIntel,71.42857143,,,,,,,,,,,,,,,,,,,,,,,102.944,104.261,l,1,[],[],[],[],[],[],[],0.639,1,104.263,104.758,,,,,,742,MAS,CON,150,piano,,l,0.639,,104.758,104.759,0.08875,-0.335,0,0,0,,0,4,4,291,1,,,,
,,,,,,e7cc91fb7de369acb548daf2,66a626ef09d4e21e1a8894ec,6734e037acf809f2a2f552fd,2024-11-13_11h29.42.074,Tarea de género gramatical,2024.2.2,MacIntel,71.42857143,,,,,,,,,,,,,,,,,,,,,,,104.759,105.926,l,1,[],[],[],[],[],[],[],0.5,1,105.927,106.426,,,,,,474,MAS,AGR,150,voto,el,l,0.5,,106.426,106.426,0.08875,-0.335,0,0,0,,0,5,5,23,1,,,,
,,,,,,e7cc91fb7de369acb548daf2,66a626ef09d4e21e1a8894ec,6734e037acf809f2a2f552fd,2024-11-13_11h29.42.074,Tarea de género gramatical,2024.2.2,MacIntel,71.42857143,,,,,,,,,,,,,,,,,,,,,,,106.427,108.029,a,1,[],[],[],[],[],[],[],0.923,1,108.03,108.528,,,,,,494,FEM,DIS,150,zona,el,a,0.923,,108.531,108.534,0.08875,-0.335,0,0,0,,0,6,6,43,1,,,,
,,,,,,e7cc91fb7de369acb548daf2,66a626ef09d4e21e1a8894ec,6734e037acf809f2a2f552fd,2024-11-13_11h29.42.074,Tarea de género gramatical,2024.2.2,MacIntel,71.42857143,,,,,,,,,,,,,,,,,,,,,,,108.535,110.082,l,1,[],[],[],[],[],[],[],0.874,1,110.083,110.581,,,,,,683,MAS,DIS,150,golpe,la,l,0.874,,110.581,110.581,0.08875,-0.335,0,0,0,,0,7,7,232,1,,,,
,,,,,,e7cc91fb7de369acb548daf2,66a626ef09d4e21e1a8894ec,6734e037acf809f2a2f552fd,2024-11-13_11h29.42.074,Tarea de género gramatical,2024.2.2,MacIntel,71.42857143,,,,,,,,,,,,,,,,,,,,,,,110.582,112.014,a,1,[],[],[],[],[],[],[],0.751,1,112.014,112.513,,,,,,859,FEM,CON,150,moneda,,a,0.751,,112.514,112.514,0.08875,-0.335,0,0,0,,0,8,8,408,1,,,,
,,,,,,e7cc91fb7de369acb548daf2,66a626ef09d4e21e1a8894ec,6734e037acf809f2a2f552fd,2024-11-13_11h29.42.074,Tarea de género gramatical,2024.2.2,MacIntel,71.42857143,,,,,,,,,,,,,,,,,,,,,,,112.516,114.081,a,1,[],[],[],[],[],[],[],0.899,1,114.081,114.583,,,,,,764,FEM,DIS,150,señora,el,a,0.899,,114.583,114.584,0.08875,-0.335,0,0,0,,0,9,9,313,1,,,,
,,,,,,e7cc91fb7de369acb548daf2,66a626ef09d4e21e1a8894ec,6734e037acf809f2a2f552fd,2024-11-13_11h29.42.074,Tarea de género gramatical,2024.2.2,MacIntel,71.42857143,,,,,,,,,,,,,,,,,,,,,,,114.585,115.798,l,1,[],[],[],[],[],[],[],0.547,1,115.798,116.297,,,,,,485,MAS,DIS,150,taxi,la,l,0.547,,116.297,116.298,0.08875,-0.335,0,0,0,,0,10,10,34,1,,,,
,,,,,,e7cc91fb7de369acb548daf2,66a626ef09d4e21e1a8894ec,6734e037acf809f2a2f552fd,2024-11-13_11h29.42.074,Tarea de género gramatical,2024.2.2,MacIntel,71.42857143,,,,,,,,,,,,,,,,,,,,,,,116.298,117.465,l,1,[],[],[],[],[],[],[],0.503,1,117.466,117.967,,,,,,724,MAS,CON,150,motor,,l,0.503,,117.968,117.971,0.08875,-0.335,0,0,0,,0,11,11,273,1,,,,
,,,,,,e7cc91fb7de369acb548daf2,66a626ef09d4e21e1a8894ec,6734e037acf809f2a2f552fd,2024-11-13_11h29.42.074,Tarea de género gramatical,2024.2.2,MacIntel,71.42857143,,,,,,,,,,,,,,,,,,,,,,,117.971,119.251,a,1,[],[],[],[],[],[],[],0.617,1,119.251,119.749,,,,,,602,FEM,DIS,150,gente,el,a,0.617,,119.749,119.749,0.08875,-0.335,0,0,0,,0,12,12,151,1,,,,
,,,,,,e7cc91fb7de369acb548daf2,66a626ef09d4e21e1a8894ec,6734e037acf809f2a2f552fd,2024-11-13_11h29.42.074,Tarea de género gramatical,2024.2.2,MacIntel,71.42857143,,,,,,,,,,,,,,,,,,,,,,,119.75,121.033,l,1,[],[],[],[],[],[],[],0.615,1,121.034,121.534,,,,,,839,MAS,DIS,150,tamaño,la,l,0.615,,121.534,121.534,0.08875,-0.335,0,0,0,,0,13,13,388,1,,,,
,,,,,,e7cc91fb7de369acb548daf2,66a626ef09d4e21e1a8894ec,6734e037acf809f2a2f552fd,2024-11-13_11h29.42.074,Tarea de género gramatical,2024.2.2,MacIntel,71.42857143,,,,,,,,,,,,,,,,,,,,,,,121.535,122.685,l,1,[],[],[],[],[],[],[],0.479,1,122.686,123.184,,,,,,510,MAS,AGR,150,tono,el,l,0.479,,123.185,123.185,0.08875,-0.335,0,0,0,,0,14,14,59,1,,,,
,,,,,,e7cc91fb7de369acb548daf2,66a626ef09d4e21e1a8894ec,6734e037acf809f2a2f552fd,2024-11-13_11h29.42.074,Tarea de género gramatical,2024.2.2,MacIntel,71.42857143,,,,,,,,,,,,,,,,,,,,,,,123.187,124.435,l,1,[],[],[],[],[],[],[],0.583,1,124.436,124.935,,,,,,641,MAS,DIS,150,dolor,la,l,0.583,,124.936,124.939,0.08875,-0.335,0,0,0,,0,15,15,190,1,,,,
,,,,,,e7cc91fb7de369acb548daf2,66a626ef09d4e21e1a8894ec,6734e037acf809f2a2f552fd,2024-11-13_11h29.42.074,Tarea de género gramatical,2024.2.2,MacIntel,71.42857143,,,,,,,,,,,,,,,,,,,,,,,124.941,126.054,a,1,[],[],[],[],[],[],[],0.436,1,126.054,126.553,,,,,,487,FEM,CON,150,sala,,a,0.436,,126.553,126.553,0.08875,-0.335,0,0,0,,0,16,16,36,1,,,,
,,,,,,e7cc91fb7de369acb548daf2,66a626ef09d4e21e1a8894ec,6734e037acf809f2a2f552fd,2024-11-13_11h29.42.074,Tarea de género gramatical,2024.2.2,MacIntel,71.42857143,,,,,,,,,,,,,,,,,,,,,,,126.555,127.789,a,1,[],[],[],[],[],[],[],0.54,1,127.79,128.287,,,,,,595,FEM,CON,150,bota,,a,0.54,,128.287,128.287,0.08875,-0.335,0,0,0,,0,17,17,144,1,,,,
,,,,,,e7cc91fb7de369acb548daf2,66a626ef09d4e21e1a8894ec,6734e037acf809f2a2f552fd,2024-11-13_11h29.42.074,Tarea de género gramatical,2024.2.2,MacIntel,71.42857143,,,,,,,,,,,,,,,,,,,,,,,128.288,129.488,a,1,[],[],[],[],[],[],[],0.535,1,129.488,129.989,,,,,,499,FEM,CON,150,piel,,a,0.535,,129.99,129.99,0.08875,-0.335,0,0,0,,0,18,18,48,1,,,,
,,,,,,e7cc91fb7de369acb548daf2,66a626ef09d4e21e1a8894ec,6734e037acf809f2a2f552fd,2024-11-13_11h29.42.074,Tarea de género gramatical,2024.2.2,MacIntel,71.42857143,,,,,,,,,,,,,,,,,,,,,,,129.991,131.089,a,1,[],[],[],[],[],[],[],0.427,1,131.09,131.59,,,,,,777,FEM,AGR,150,tienda,la,a,0.427,,131.59,131.59,0.08875,-0.335,0,0,0,,0,19,19,326,1,,,,
,,,,,,e7cc91fb7de369acb548daf2,66a626ef09d4e21e1a8894ec,6734e037acf809f2a2f552fd,2024-11-13_11h29.42.074,Tarea de género gramatical,2024.2.2,MacIntel,71.42857143,,,,,,,,,,,,,,,,,,,,,,,131.591,133.007,l,1,[],[],[],[],[],[],[],0.749,1,133.008,133.507,,,,,,766,MAS,CON,150,cuerpo,,l,0.749,,133.508,133.51,0.08875,-0.335,0,0,0,,0,20,20,315,1,,,,
,,,,,,e7cc91fb7de369acb548daf2,66a626ef09d4e21e1a8894ec,6734e037acf809f2a2f552fd,2024-11-13_11h29.42.074,Tarea de género gramatical,2024.2.2,MacIntel,71.42857143,,,,,,,,,,,,,,,,,,,,,,,133.511,134.793,l,1,[],[],[],[],[],[],[],0.604,1,134.793,135.29,,,,,,671,MAS,DIS,150,brazo,la,l,0.604,,135.29,135.29,0.08875,-0.335,0,0,0,,0,21,21,220,1,,,,
,,,,,,e7cc91fb7de369acb548daf2,66a626ef09d4e21e1a8894ec,6734e037acf809f2a2f552fd,2024-11-13_11h29.42.074,Tarea de género gramatical,2024.2.2,MacIntel,71.42857143,,,,,,,,,,,,,,,,,,,,,,,135.291,136.558,l,1,[],[],[],[],[],[],[],0.598,1,136.559,137.059,,,,,,792,MAS,AGR,150,abuelo,el,l,0.598,,137.059,137.06,0.08875,-0.335,0,0,0,,0,22,22,341,1,,,,
,,,,,,e7cc91fb7de369acb548daf2,66a626ef09d4e21e1a8894ec,6734e037acf809f2a2f552fd,2024-11-13_11h29.42.074,Tarea de género gramatical,2024.2.2,MacIntel,71.42857143,,,,,,,,,,,,,,,,,,,,,,,137.06,138.209,l,1,[],[],[],[],[],[],[],0.47,1,138.209,138.709,,,,,,624,MAS,AGR,150,perro,el,l,0.47,,138.709,138.71,0.08875,-0.335,0,0,0,,0,23,23,173,1,,,,
,,,,,,e7cc91fb7de369acb548daf2,66a626ef09d4e21e1a8894ec,6734e037acf809f2a2f552fd,2024-11-13_11h29.42.074,Tarea de género gramatical,2024.2.2,MacIntel,71.42857143,,,,,,,,,,,,,,,,,,,,,,,138.711,139.808,l,1,[],[],[],[],[],[],[],0.433,1,139.808,140.315,,,,,,648,MAS,AGR,150,hotel,el,l,0.433,,140.316,140.317,0.08875,-0.335,0,0,0,,0,24,24,197,1,,,,
,,,,,,e7cc91fb7de369acb548daf2,66a626ef09d4e21e1a8894ec,6734e037acf809f2a2f552fd,2024-11-13_11h29.42.074,Tarea de género gramatical,2024.2.2,MacIntel,71.42857143,,,,,,,,,,,,,,,,,,,,,,,140.318,141.344,l,1,[],[],[],[],[],[],[],0.358,1,141.344,141.848,,,,,,858,MAS,AGR,150,cheque,el,l,0.358,,141.848,141.849,0.08875,-0.335,0,0,0,,0,25,25,407,1,,,,
,,,,,,e7cc91fb7de369acb548daf2,66a626ef09d4e21e1a8894ec,6734e037acf809f2a2f552fd,2024-11-13_11h29.42.074,Tarea de género gramatical,2024.2.2,MacIntel,71.42857143,,,,,,,,,,,,,,,,,,,,,,,141.849,142.928,l,1,[],[],[],[],[],[],[],0.394,1,142.928,143.427,,,,,,528,MAS,AGR,150,oído,el,l,0.394,,143.427,143.427,0.08875,-0.335,0,0,0,,0,26,26,77,1,,,,
,,,,,,e7cc91fb7de369acb548daf2,66a626ef09d4e21e1a8894ec,6734e037acf809f2a2f552fd,2024-11-13_11h29.42.074,Tarea de género gramatical,2024.2.2,MacIntel,71.42857143,,,,,,,,,,,,,,,,,,,,,,,143.428,144.563,a,1,[],[],[],[],[],[],[],0.458,1,144.563,145.062,,,,,,453,FEM,AGR,150,cosa,la,a,0.458,,145.062,145.062,0.08875,-0.335,0,0,0,,0,27,27,2,1,,,,
,,,,,,e7cc91fb7de369acb548daf2,66a626ef09d4e21e1a8894ec,6734e037acf809f2a2f552fd,2024-11-13_11h29.42.074,Tarea de género gramatical,2024.2.2,MacIntel,71.42857143,,,,,,,,,,,,,,,,,,,,,,,145.064,146.404,a,1,[],[],[],[],[],[],[],0.663,1,146.404,146.896,,,,,,543,FEM,AGR,150,lata,la,a,0.663,,146.896,146.896,0.08875,-0.335,0,0,0,,0,28,28,92,1,,,,
,,,,,,e7cc91fb7de369acb548daf2,66a626ef09d4e21e1a8894ec,6734e037acf809f2a2f552fd,2024-11-13_11h29.42.074,Tarea de género gramatical,2024.2.2,MacIntel,71.42857143,,,,,,,,,,,,,,,,,,,,,,,146.896,148.079,a,1,[],[],[],[],[],[],[],0.501,1,148.08,148.579,,,,,,843,FEM,AGR,150,alarma,la,a,0.501,,148.58,148.581,0.08875,-0.335,0,0,0,,0,29,29,392,1,,,,
,,,,,,e7cc91fb7de369acb548daf2,66a626ef09d4e21e1a8894ec,6734e037acf809f2a2f552fd,2024-11-13_11h29.42.074,Tarea de género gramatical,2024.2.2,MacIntel,71.42857143,,,,,,,,,,,,,,,,,,,,,,,148.582,149.898,l,1,[],[],[],[],[],[],[],0.637,1,149.899,150.399,,,,,,521,MAS,DIS,150,pozo,la,l,0.637,,150.399,150.4,0.08875,-0.335,0,0,0,,0,30,30,70,1,,,,
,,,,,,e7cc91fb7de369acb548daf2,66a626ef09d4e21e1a8894ec,6734e037acf809f2a2f552fd,2024-11-13_11h29.42.074,Tarea de género gramatical,2024.2.2,MacIntel,71.42857143,,,,,,,,,,,,,,,,,,,,,,,150.401,151.768,l,1,[],[],[],[],[],[],[],0.678,1,151.768,152.266,,,,,,816,MAS,AGR,150,riesgo,el,l,0.678,,152.266,152.267,0.08875,-0.335,0,0,0,,0,31,31,365,1,,,,
,,,,,,e7cc91fb7de369acb548daf2,66a626ef09d4e21e1a8894ec,6734e037acf809f2a2f552fd,2024-11-13_11h29.42.074,Tarea de género gramatical,2024.2.2,MacIntel,71.42857143,,,,,,,,,,,,,,,,,,,,,,,152.268,153.465,l,1,[],[],[],[],[],[],[],0.525,1,153.465,153.966,,,,,,466,MAS,CON,150,baño,,l,0.525,,153.966,153.966,0.08875,-0.335,0,0,0,,0,32,32,15,1,,,,
,,,,,,e7cc91fb7de369acb548daf2,66a626ef09d4e21e1a8894ec,6734e037acf809f2a2f552fd,2024-11-13_11h29.42.074,Tarea de género gramatical,2024.2.2,MacIntel,71.42857143,,,,,,,,,,,,,,,,,,,,,,,153.967,155.235,a,1,[],[],[],[],[],[],[],0.598,1,155.235,155.737,,,,,,879,FEM,AGR,150,fianza,la,a,0.598,,155.739,155.741,0.08875,-0.335,0,0,0,,0,33,33,428,1,,,,
,,,,,,e7cc91fb7de369acb548daf2,66a626ef09d4e21e1a8894ec,6734e037acf809f2a2f552fd,2024-11-13_11h29.42.074,Tarea de género gramatical,2024.2.2,MacIntel,71.42857143,,,,,,,,,,,,,,,,,,,,,,,155.743,157.451,l,1,[],[],[],[],[],[],[],1.031,1,157.451,157.942,,,,,,809,MAS,DIS,150,bosque,la,l,1.031,,157.942,157.942,0.08875,-0.335,0,0,0,,0,34,34,358,1,,,,
,,,,,,e7cc91fb7de369acb548daf2,66a626ef09d4e21e1a8894ec,6734e037acf809f2a2f552fd,2024-11-13_11h29.42.074,Tarea de género gramatical,2024.2.2,MacIntel,71.42857143,,,,,,,,,,,,,,,,,,,,,,,157.943,159.068,a,1,[],[],[],[],[],[],[],0.445,1,159.068,159.568,,,,,,889,FEM,CON,150,toalla,,a,0.445,,159.568,159.568,0.08875,-0.335,0,0,0,,0,35,35,438,1,,,,
,,,,,,e7cc91fb7de369acb548daf2,66a626ef09d4e21e1a8894ec,6734e037acf809f2a2f552fd,2024-11-13_11h29.42.074,Tarea de género gramatical,2024.2.2,MacIntel,71.42857143,,,,,,,,,,,,,,,,,,,,,,,159.569,160.787,a,1,[],[],[],[],[],[],[],0.536,1,160.787,161.288,,,,,,693,FEM,AGR,150,salsa,la,a,0.536,,161.288,161.289,0.08875,-0.335,0,0,0,,0,36,36,242,1,,,,
,,,,,,e7cc91fb7de369acb548daf2,66a626ef09d4e21e1a8894ec,6734e037acf809f2a2f552fd,2024-11-13_11h29.42.074,Tarea de género gramatical,2024.2.2,MacIntel,71.42857143,,,,,,,,,,,,,,,,,,,,,,,161.289,162.586,l,1,[],[],[],[],[],[],[],0.61,1,162.586,163.087,,,,,,606,MAS,AGR,150,amigo,el,l,0.61,,163.087,163.088,0.08875,-0.335,0,0,0,,0,37,37,155,1,,,,
,,,,,,e7cc91fb7de369acb548daf2,66a626ef09d4e21e1a8894ec,6734e037acf809f2a2f552fd,2024-11-13_11h29.42.074,Tarea de género gramatical,2024.2.2,MacIntel,71.42857143,,,,,,,,,,,,,,,,,,,,,,,163.09,164.454,a,1,[],[],[],[],[],[],[],0.682,1,164.455,164.954,,,,,,565,FEM,CON,150,seda,,a,0.682,,164.956,164.96,0.08875,-0.335,0,0,0,,0,38,38,114,1,,,,
,,,,,,e7cc91fb7de369acb548daf2,66a626ef09d4e21e1a8894ec,6734e037acf809f2a2f552fd,2024-11-13_11h29.42.074,Tarea de género gramatical,2024.2.2,MacIntel,71.42857143,,,,,,,,,,,,,,,,,,,,,,,164.961,166.472,l,1,[],[],[],[],[],[],[],0.836,1,166.473,166.973,,,,,,486,MAS,AGR,150,dedo,el,l,0.836,,166.973,166.973,0.08875,-0.335,0,0,0,,0,39,39,35,1,,,,
,,,,,,e7cc91fb7de369acb548daf2,66a626ef09d4e21e1a8894ec,6734e037acf809f2a2f552fd,2024-11-13_11h29.42.074,Tarea de género gramatical,2024.2.2,MacIntel,71.42857143,,,,,,,,,,,,,,,,,,,,,,,166.975,168.09,a,1,[],[],[],[],[],[],[],0.438,1,168.09,168.59,,,,,,807,FEM,AGR,150,lengua,la,a,0.438,,168.59,168.59,0.08875,-0.335,0,0,0,,0,40,40,356,1,,,,
,,,,,,e7cc91fb7de369acb548daf2,66a626ef09d4e21e1a8894ec,6734e037acf809f2a2f552fd,2024-11-13_11h29.42.074,Tarea de género gramatical,2024.2.2,MacIntel,71.42857143,,,,,,,,,,,,,,,,,,,,,,,168.592,169.791,l,1,[],[],[],[],[],[],[],0.525,1,169.791,170.292,,,,,,708,MAS,AGR,150,polvo,el,l,0.525,,170.292,170.292,0.08875,-0.335,0,0,0,,0,41,41,257,1,,,,
,,,,,,e7cc91fb7de369acb548daf2,66a626ef09d4e21e1a8894ec,6734e037acf809f2a2f552fd,2024-11-13_11h29.42.074,Tarea de género gramatical,2024.2.2,MacIntel,71.42857143,,,,,,,,,,,,,,,,,,,,,,,170.292,171.692,l,1,[],[],[],[],[],[],[],0.739,1,171.692,172.191,,,,,,694,MAS,CON,150,hielo,,l,0.739,,172.192,172.194,0.08875,-0.335,0,0,0,,0,42,42,243,1,,,,
,,,,,,e7cc91fb7de369acb548daf2,66a626ef09d4e21e1a8894ec,6734e037acf809f2a2f552fd,2024-11-13_11h29.42.074,Tarea de género gramatical,2024.2.2,MacIntel,71.42857143,,,,,,,,,,,,,,,,,,,,,,,172.195,173.324,l,1,[],[],[],[],[],[],[],0.458,1,173.324,173.827,,,,,,760,MAS,CON,150,nombre,,l,0.458,,173.827,173.828,0.08875,-0.335,0,0,0,,0,43,43,309,1,,,,
,,,,,,e7cc91fb7de369acb548daf2,66a626ef09d4e21e1a8894ec,6734e037acf809f2a2f552fd,2024-11-13_11h29.42.074,Tarea de género gramatical,2024.2.2,MacIntel,71.42857143,,,,,,,,,,,,,,,,,,,,,,,173.828,174.894,l,1,[],[],[],[],[],[],[],0.393,1,174.894,175.393,,,,,,472,MAS,CON,150,pelo,,l,0.393,,175.393,175.393,0.08875,-0.335,0,0,0,,0,44,44,21,1,,,,
,,,,,,e7cc91fb7de369acb548daf2,66a626ef09d4e21e1a8894ec,6734e037acf809f2a2f552fd,2024-11-13_11h29.42.074,Tarea de género gramatical,2024.2.2,MacIntel,71.42857143,,,,,,,,,,,,,,,,,,,,,,,175.393,176.696,a,1,[],[],[],[],[],[],[],0.642,1,176.696,177.194,,,,,,842,FEM,DIS,150,maleta,el,a,0.642,,177.194,177.195,0.08875,-0.335,0,0,0,,0,45,45,391,1,,,,
,,,,,,e7cc91fb7de369acb548daf2,66a626ef09d4e21e1a8894ec,6734e037acf809f2a2f552fd,2024-11-13_11h29.42.074,Tarea de género gramatical,2024.2.2,MacIntel,71.42857143,,,,,,,,,,,,,,,,,,,,,,,177.196,178.645,a,1,[],[],[],[],[],[],[],0.778,1,178.645,179.146,,,,,,505,FEM,CON,150,taza,,a,0.778,,179.146,179.146,0.08875,-0.335,0,0,0,,0,46,46,54,1,,,,
,,,,,,e7cc91fb7de369acb548daf2,66a626ef09d4e21e1a8894ec,6734e037acf809f2a2f552fd,2024-11-13_11h29.42.074,Tarea de género gramatical,2024.2.2,MacIntel,71.42857143,,,,,,,,,,,,,,,,,,,,,,,179.147,180.328,l,1,[],[],[],[],[],[],[],0.523,1,180.328,180.816,,,,,,719,MAS,DIS,150,primo,la,l,0.523,,180.817,180.819,0.08875,-0.335,0,0,0,,0,47,47,268,1,,,,
,,,,,,e7cc91fb7de369acb548daf2,66a626ef09d4e21e1a8894ec,6734e037acf809f2a2f552fd,2024-11-13_11h29.42.074,Tarea de género gramatical,2024.2.2,MacIntel,71.42857143,,,,,,,,,,,,,,,,,,,,,,,180.82,182.046,l,1,[],[],[],[],[],[],[],0.55,1,182.047,182.547,,,,,,497,MAS,DIS,150,olor,la,l,0.55,,182.547,182.547,0.08875,-0.335,0,0,0,,0,48,48,46,1,,,,
,,,,,,e7cc91fb7de369acb548daf2,66a626ef09d4e21e1a8894ec,6734e037acf809f2a2f552fd,2024-11-13_11h29.42.074,Tarea de género gramatical,2024.2.2,MacIntel,71.42857143,,,,,,,,,,,,,,,,,,,,,,,182.549,183.612,l,1,[],[],[],[],[],[],[],0.403,1,183.612,184.113,,,,,,886,MAS,CON,150,objeto,,l,0.403,,184.113,184.113,0.08875,-0.335,0,0,0,,0,49,49,435,1,,,,
,,,,,,e7cc91fb7de369acb548daf2,66a626ef09d4e21e1a8894ec,6734e037acf809f2a2f552fd,2024-11-13_11h29.42.074,Tarea de género gramatical,2024.2.2,MacIntel,71.42857143,,,,,,,,,,,,,,,,,,,,,,,184.114,185.383,a,1,[],[],[],[],[],[],[],0.605,1,185.384,185.891,,,,,,625,FEM,CON,150,señal,,a,0.605,,185.891,185.892,0.08875,-0.335,0,0,0,,0,50,50,174,1,,,,
,,,,,,e7cc91fb7de369acb548daf2,66a626ef09d4e21e1a8894ec,6734e037acf809f2a2f552fd,2024-11-13_11h29.42.074,Tarea de género gramatical,2024.2.2,MacIntel,71.42857143,,,,,,,,,,,,,,,,,,,,,,,185.892,187.265,l,1,[],[],[],[],[],[],[],0.701,1,187.265,187.767,,,,,,455,MAS,DIS,150,tipo,la,l,0.701,,187.769,187.77,0.08875,-0.335,0,0,0,,0,51,51,4,1,,,,
,,,,,,e7cc91fb7de369acb548daf2,66a626ef09d4e21e1a8894ec,6734e037acf809f2a2f552fd,2024-11-13_11h29.42.074,Tarea de género gramatical,2024.2.2,MacIntel,71.42857143,,,,,,,,,,,,,,,,,,,,,,,187.771,189.2,a,1,[],[],[],[],[],[],[],0.746,1,189.201,189.699,,,,,,627,FEM,AGR,150,broma,la,a,0.746,,189.699,189.699,0.08875,-0.335,0,0,0,,0,52,52,176,1,,,,
,,,,,,e7cc91fb7de369acb548daf2,66a626ef09d4e21e1a8894ec,6734e037acf809f2a2f552fd,2024-11-13_11h29.42.074,Tarea de género gramatical,2024.2.2,MacIntel,71.42857143,,,,,,,,,,,,,,,,,,,,,,,189.699,191,l,1,[],[],[],[],[],[],[],0.638,1,191,191.501,,,,,,881,MAS,DIS,150,veneno,la,l,0.638,,191.502,191.502,0.08875,-0.335,0,0,0,,0,53,53,430,1,,,,
,,,,,,e7cc91fb7de369acb548daf2,66a626ef09d4e21e1a8894ec,6734e037acf809f2a2f552fd,2024-11-13_11h29.42.074,Tarea de género gramatical,2024.2.2,MacIntel,71.42857143,,,,,,,,,,,,,,,,,,,,,,,191.503,192.802,a,1,[],[],[],[],[],[],[],0.624,1,192.803,193.3,,,,,,655,FEM,CON,150,reina,,a,0.624,,193.3,193.3,0.08875,-0.335,0,0,0,,0,54,54,204,1,,,,
,,,,,,e7cc91fb7de369acb548daf2,66a626ef09d4e21e1a8894ec,6734e037acf809f2a2f552fd,2024-11-13_11h29.42.074,Tarea de género gramatical,2024.2.2,MacIntel,71.42857143,,,,,,,,,,,,,,,,,,,,,,,193.301,194.352,l,1,[],[],[],[],[],[],[],0.389,1,194.352,194.838,,,,,,634,MAS,CON,150,cielo,,l,0.389,,194.838,194.838,0.08875,-0.335,0,0,0,,0,55,55,183,1,,,,
,,,,,,e7cc91fb7de369acb548daf2,66a626ef09d4e21e1a8894ec,6734e037acf809f2a2f552fd,2024-11-13_11h29.42.074,Tarea de género gramatical,2024.2.2,MacIntel,71.42857143,,,,,,,,,,,,,,,,,,,,,,,194.839,196.03,l,1,[],[],[],[],[],[],[],0.501,1,196.03,196.519,,,,,,768,MAS,AGR,150,pueblo,el,l,0.501,,196.521,196.523,0.08875,-0.335,0,0,0,,0,56,56,317,1,,,,
,,,,,,e7cc91fb7de369acb548daf2,66a626ef09d4e21e1a8894ec,6734e037acf809f2a2f552fd,2024-11-13_11h29.42.074,Tarea de género gramatical,2024.2.2,MacIntel,71.42857143,,,,,,,,,,,,,,,,,,,,,,,196.524,197.673,l,1,[],[],[],[],[],[],[],0.472,1,197.673,198.169,,,,,,862,MAS,CON,150,espejo,,l,0.472,,198.169,198.169,0.08875,-0.335,0,0,0,,0,57,57,411,1,,,,
,,,,,,e7cc91fb7de369acb548daf2,66a626ef09d4e21e1a8894ec,6734e037acf809f2a2f552fd,2024-11-13_11h29.42.074,Tarea de género gramatical,2024.2.2,MacIntel,71.42857143,,,,,,,,,,,,,,,,,,,,,,,198.17,199.27,a,1,[],[],[],[],[],[],[],0.437,1,199.27,199.761,,,,,,596,FEM,DIS,150,lana,el,a,0.437,,199.762,199.762,0.08875,-0.335,0,0,0,,0,58,58,145,1,,,,
,,,,,,e7cc91fb7de369acb548daf2,66a626ef09d4e21e1a8894ec,6734e037acf809f2a2f552fd,2024-11-13_11h29.42.074,Tarea de género gramatical,2024.2.2,MacIntel,71.42857143,,,,,,,,,,,,,,,,,,,,,,,199.763,200.889,l,1,[],[],[],[],[],[],[],0.451,1,200.889,201.379,,,,,,899,MAS,DIS,150,payaso,la,l,0.451,,201.379,201.379,0.08875,-0.335,0,0,0,,0,59,59,448,1,,,,
,,,,,,e7cc91fb7de369acb548daf2,66a626ef09d4e21e1a8894ec,6734e037acf809f2a2f552fd,2024-11-13_11h29.42.074,Tarea de género gramatical,2024.2.2,MacIntel,71.42857143,,,,,,,,,,,,,,,,,,,,,,,201.38,202.576,l,1,[],[],[],[],[],[],[],0.527,1,202.576,203.074,,,,,,563,MAS,DIS,150,toro,la,l,0.527,,203.074,203.078,0.08875,-0.335,0,0,0,,0,60,60,112,1,,,,
,,,,,,e7cc91fb7de369acb548daf2,66a626ef09d4e21e1a8894ec,6734e037acf809f2a2f552fd,2024-11-13_11h29.42.074,Tarea de género gramatical,2024.2.2,MacIntel,71.42857143,,,,,,,,,,,,,,,,,,,,,,,203.08,204.206,a,1,[],[],[],[],[],[],[],0.449,1,204.207,204.707,,,,,,795,FEM,AGR,150,pierna,la,a,0.449,,204.708,204.708,0.08875,-0.335,0,0,0,,0,61,61,344,1,,,,
,,,,,,e7cc91fb7de369acb548daf2,66a626ef09d4e21e1a8894ec,6734e037acf809f2a2f552fd,2024-11-13_11h29.42.074,Tarea de género gramatical,2024.2.2,MacIntel,71.42857143,,,,,,,,,,,,,,,,,,,,,,,204.709,205.877,l,1,[],[],[],[],[],[],[],0.511,1,205.878,206.374,,,,,,864,MAS,AGR,150,sótano,el,l,0.511,,206.374,206.374,0.08875,-0.335,0,0,0,,0,62,62,413,1,,,,
,,,,,,e7cc91fb7de369acb548daf2,66a626ef09d4e21e1a8894ec,6734e037acf809f2a2f552fd,2024-11-13_11h29.42.074,Tarea de género gramatical,2024.2.2,MacIntel,71.42857143,,,,,,,,,,,,,,,,,,,,,,,206.374,207.574,a,1,[],[],[],[],[],[],[],0.536,1,207.575,208.078,,,,,,836,FEM,DIS,150,sombra,el,a,0.536,,208.078,208.078,0.08875,-0.335,0,0,0,,0,63,63,385,1,,,,
,,,,,,e7cc91fb7de369acb548daf2,66a626ef09d4e21e1a8894ec,6734e037acf809f2a2f552fd,2024-11-13_11h29.42.074,Tarea de género gramatical,2024.2.2,MacIntel,71.42857143,,,,,,,,,,,,,,,,,,,,,,,208.079,209.709,a,1,[],[],[],[],[],[],[],0.958,1,209.709,210.208,,,,,,500,FEM,DIS,150,dama,el,a,0.958,,210.208,210.208,0.08875,-0.335,0,0,0,,0,64,64,49,1,,,,
,,,,,,e7cc91fb7de369acb548daf2,66a626ef09d4e21e1a8894ec,6734e037acf809f2a2f552fd,2024-11-13_11h29.42.074,Tarea de género gramatical,2024.2.2,MacIntel,71.42857143,,,,,,,,,,,,,,,,,,,,,,,210.209,211.544,a,1,[],[],[],[],[],[],[],0.677,1,211.544,212.044,,,,,,524,FEM,DIS,150,flor,el,a,0.677,,212.045,212.046,0.08875,-0.335,0,0,0,,0,65,65,73,1,,,,
,,,,,,e7cc91fb7de369acb548daf2,66a626ef09d4e21e1a8894ec,6734e037acf809f2a2f552fd,2024-11-13_11h29.42.074,Tarea de género gramatical,2024.2.2,MacIntel,71.42857143,,,,,,,,,,,,,,,,,,,,,,,212.047,213.11,a,1,[],[],[],[],[],[],[],0.392,1,213.11,213.61,,,,,,615,FEM,AGR,150,amiga,la,a,0.392,,213.61,213.61,0.08875,-0.335,0,0,0,,0,66,66,164,1,,,,
,,,,,,e7cc91fb7de369acb548daf2,66a626ef09d4e21e1a8894ec,6734e037acf809f2a2f552fd,2024-11-13_11h29.42.074,Tarea de género gramatical,2024.2.2,MacIntel,71.42857143,,,,,,,,,,,,,,,,,,,,,,,213.61,215.445,l,0,[],[],[],[],[],[],[],1.171,0,215.447,215.945,,,,,,578,FEM,DIS,150,leña,el,a,1.171,,215.946,215.946,0.08875,-0.335,0,0,0,,0,67,67,127,1,,,,
,,,,,,e7cc91fb7de369acb548daf2,66a626ef09d4e21e1a8894ec,6734e037acf809f2a2f552fd,2024-11-13_11h29.42.074,Tarea de género gramatical,2024.2.2,MacIntel,71.42857143,,,,,,,,,,,,,,,,,,,,,,,215.948,218.212,l,1,[],[],[],[],[],[],[],1.597,1,218.212,218.72,,,,,,534,MAS,AGR,150,mago,el,l,1.597,,218.72,218.72,0.08875,-0.335,0,0,0,,0,68,68,83,1,,,,
,,,,,,e7cc91fb7de369acb548daf2,66a626ef09d4e21e1a8894ec,6734e037acf809f2a2f552fd,2024-11-13_11h29.42.074,Tarea de género gramatical,2024.2.2,MacIntel,71.42857143,,,,,,,,,,,,,,,,,,,,,,,218.721,219.847,a,1,[],[],[],[],[],[],[],0.447,1,219.847,220.348,,,,,,877,FEM,CON,150,agenda,,a,0.447,,220.35,220.352,0.08875,-0.335,0,0,0,,0,69,69,426,1,,,,
,,,,,,e7cc91fb7de369acb548daf2,66a626ef09d4e21e1a8894ec,6734e037acf809f2a2f552fd,2024-11-13_11h29.42.074,Tarea de género gramatical,2024.2.2,MacIntel,71.42857143,,,,,,,,,,,,,,,,,,,,,,,220.353,221.632,l,1,[],[],[],[],[],[],[],0.604,1,221.632,222.131,,,,,,833,MAS,DIS,150,parque,la,l,0.604,,222.131,222.131,0.08875,-0.335,0,0,0,,0,70,70,382,1,,,,
,,,,,,e7cc91fb7de369acb548daf2,66a626ef09d4e21e1a8894ec,6734e037acf809f2a2f552fd,2024-11-13_11h29.42.074,Tarea de género gramatical,2024.2.2,MacIntel,71.42857143,,,,,,,,,,,,,,,,,,,,,,,222.132,223.319,l,1,[],[],[],[],[],[],[],0.521,1,223.319,223.815,,,,,,664,MAS,CON,150,fondo,,l,0.521,,223.815,223.815,0.08875,-0.335,0,0,0,,0,71,71,213,1,,,,
,,,,,,e7cc91fb7de369acb548daf2,66a626ef09d4e21e1a8894ec,6734e037acf809f2a2f552fd,2024-11-13_11h29.42.074,Tarea de género gramatical,2024.2.2,MacIntel,71.42857143,,,,,,,,,,,,,,,,,,,,,,,223.815,225.235,l,1,[],[],[],[],[],[],[],0.756,1,225.235,225.734,,,,,,468,MAS,AGR,150,tren,el,l,0.756,,225.734,225.734,0.08875,-0.335,0,0,0,,0,72,72,17,1,,,,
,,,,,,e7cc91fb7de369acb548daf2,66a626ef09d4e21e1a8894ec,6734e037acf809f2a2f552fd,2024-11-13_11h29.42.074,Tarea de género gramatical,2024.2.2,MacIntel,71.42857143,,,,,,,,,,,,,,,,,,,,,,,225.736,227.151,a,1,[],[],[],[],[],[],[],0.731,1,227.151,227.651,,,,,,681,FEM,AGR,150,bruja,la,a,0.731,,227.651,227.651,0.08875,-0.335,0,0,0,,0,73,73,230,1,,,,
,,,,,,e7cc91fb7de369acb548daf2,66a626ef09d4e21e1a8894ec,6734e037acf809f2a2f552fd,2024-11-13_11h29.42.074,Tarea de género gramatical,2024.2.2,MacIntel,71.42857143,,,,,,,,,,,,,,,,,,,,,,,227.653,228.819,a,1,[],[],[],[],[],[],[],0.502,1,228.82,229.318,,,,,,573,FEM,AGR,150,tela,la,a,0.502,,229.321,229.322,0.08875,-0.335,0,0,0,,0,74,74,122,1,,,,
,,,,,,e7cc91fb7de369acb548daf2,66a626ef09d4e21e1a8894ec,6734e037acf809f2a2f552fd,2024-11-13_11h29.42.074,Tarea de género gramatical,2024.2.2,MacIntel,71.42857143,,,,,,,,,,,,,,,,,,,,,,,229.323,230.556,l,1,[],[],[],[],[],[],[],0.568,1,230.557,231.052,,,,,,460,MAS,CON,150,niño,,l,0.568,,231.052,231.052,0.08875,-0.335,0,0,0,,0,75,75,9,1,,,,
,,,,,,e7cc91fb7de369acb548daf2,66a626ef09d4e21e1a8894ec,6734e037acf809f2a2f552fd,2024-11-13_11h29.42.074,Tarea de género gramatical,2024.2.2,MacIntel,71.42857143,,,,,,,,,,,,,,,,,,,,,,,231.054,232.857,l,1,[],[],[],[],[],[],[],1.139,1,232.857,233.36,,,,,,665,MAS,DIS,150,hueso,la,l,1.139,,233.361,233.361,0.08875,-0.335,0,0,0,,0,76,76,214,1,,,,
,,,,,,e7cc91fb7de369acb548daf2,66a626ef09d4e21e1a8894ec,6734e037acf809f2a2f552fd,2024-11-13_11h29.42.074,Tarea de género gramatical,2024.2.2,MacIntel,71.42857143,,,,,,,,,,,,,,,,,,,,,,,233.361,234.624,a,1,[],[],[],[],[],[],[],0.576,1,234.624,235.124,,,,,,783,FEM,AGR,150,locura,la,a,0.576,,235.124,235.124,0.08875,-0.335,0,0,0,,0,77,77,332,1,,,,
,,,,,,e7cc91fb7de369acb548daf2,66a626ef09d4e21e1a8894ec,6734e037acf809f2a2f552fd,2024-11-13_11h29.42.074,Tarea de género gramatical,2024.2.2,MacIntel,71.42857143,,,,,,,,,,,,,,,,,,,,,,,235.125,236.372,l,1,[],[],[],[],[],[],[],0.573,1,236.373,236.86,,,,,,642,MAS,AGR,150,grupo,el,l,0.573,,236.861,236.863,0.08875,-0.335,0,0,0,,0,78,78,191,1,,,,
,,,,,,e7cc91fb7de369acb548daf2,66a626ef09d4e21e1a8894ec,6734e037acf809f2a2f552fd,2024-11-13_11h29.42.074,Tarea de género gramatical,2024.2.2,MacIntel,71.42857143,,,,,,,,,,,,,,,,,,,,,,,236.863,238.472,a,1,[],[],[],[],[],[],[],0.928,1,238.472,238.972,,,,,,747,FEM,AGR,150,manta,la,a,0.928,,238.972,238.973,0.08875,-0.335,0,0,0,,0,79,79,296,1,,,,
,,,,,,e7cc91fb7de369acb548daf2,66a626ef09d4e21e1a8894ec,6734e037acf809f2a2f552fd,2024-11-13_11h29.42.074,Tarea de género gramatical,2024.2.2,MacIntel,71.42857143,,,,,,,,,,,,,,,,,,,,,,,238.973,240.146,a,1,[],[],[],[],[],[],[],0.492,1,240.146,240.641,,,,,,675,FEM,AGR,150,pieza,la,a,0.492,,240.642,240.642,0.08875,-0.335,0,0,0,,0,80,80,224,1,,,,
,,,,,,e7cc91fb7de369acb548daf2,66a626ef09d4e21e1a8894ec,6734e037acf809f2a2f552fd,2024-11-13_11h29.42.074,Tarea de género gramatical,2024.2.2,MacIntel,71.42857143,,,,,,,,,,,,,,,,,,,,,,,240.643,242.908,l,0,[],[],[],[],[],[],[],1.581,0,242.908,243.413,,,,,,560,FEM,DIS,150,rosa,el,a,1.581,,243.413,243.413,0.08875,-0.335,0,0,0,,0,81,81,109,1,,,,
,,,,,,e7cc91fb7de369acb548daf2,66a626ef09d4e21e1a8894ec,6734e037acf809f2a2f552fd,2024-11-13_11h29.42.074,Tarea de género gramatical,2024.2.2,MacIntel,71.42857143,,,,,,,,,,,,,,,,,,,,,,,243.414,244.826,a,1,[],[],[],[],[],[],[],0.735,1,244.829,245.326,,,,,,812,FEM,DIS,150,fuente,el,a,0.735,,245.326,245.326,0.08875,-0.335,0,0,0,,0,82,82,361,1,,,,
,,,,,,e7cc91fb7de369acb548daf2,66a626ef09d4e21e1a8894ec,6734e037acf809f2a2f552fd,2024-11-13_11h29.42.074,Tarea de género gramatical,2024.2.2,MacIntel,71.42857143,,,,,,,,,,,,,,,,,,,,,,,245.327,247.077,l,1,[],[],[],[],[],[],[],1.08,1,247.077,247.577,,,,,,551,MAS,DIS,150,giro,la,l,1.08,,247.577,247.579,0.08875,-0.335,0,0,0,,0,83,83,100,1,,,,
,,,,,,e7cc91fb7de369acb548daf2,66a626ef09d4e21e1a8894ec,6734e037acf809f2a2f552fd,2024-11-13_11h29.42.074,Tarea de género gramatical,2024.2.2,MacIntel,71.42857143,,,,,,,,,,,,,,,,,,,,,,,247.58,248.96,a,1,[],[],[],[],[],[],[],0.718,1,248.96,249.46,,,,,,495,FEM,AGR,150,isla,la,a,0.718,,249.46,249.461,0.08875,-0.335,0,0,0,,0,84,84,44,1,,,,
,,,,,,e7cc91fb7de369acb548daf2,66a626ef09d4e21e1a8894ec,6734e037acf809f2a2f552fd,2024-11-13_11h29.42.074,Tarea de género gramatical,2024.2.2,MacIntel,71.42857143,,,,,,,,,,,,,,,,,,,,,,,249.461,250.814,a,1,[],[],[],[],[],[],[],0.679,1,250.815,251.322,,,,,,645,FEM,AGR,150,pared,la,a,0.679,,251.322,251.322,0.08875,-0.335,0,0,0,,0,85,85,194,1,,,,
,,,,,,e7cc91fb7de369acb548daf2,66a626ef09d4e21e1a8894ec,6734e037acf809f2a2f552fd,2024-11-13_11h29.42.074,Tarea de género gramatical,2024.2.2,MacIntel,71.42857143,,,,,,,,,,,,,,,,,,,,,,,251.323,252.446,a,1,[],[],[],[],[],[],[],0.446,1,252.446,252.947,,,,,,601,FEM,CON,150,noche,,a,0.446,,252.948,252.948,0.08875,-0.335,0,0,0,,0,86,86,150,1,,,,
,,,,,,e7cc91fb7de369acb548daf2,66a626ef09d4e21e1a8894ec,6734e037acf809f2a2f552fd,2024-11-13_11h29.42.074,Tarea de género gramatical,2024.2.2,MacIntel,71.42857143,,,,,,,,,,,,,,,,,,,,,,,252.95,254.131,l,1,[],[],[],[],[],[],[],0.512,1,254.131,254.632,,,,,,454,MAS,CON,150,hijo,,l,0.512,,254.634,254.635,0.08875,-0.335,0,0,0,,0,87,87,3,1,,,,
,,,,,,e7cc91fb7de369acb548daf2,66a626ef09d4e21e1a8894ec,6734e037acf809f2a2f552fd,2024-11-13_11h29.42.074,Tarea de género gramatical,2024.2.2,MacIntel,71.42857143,,,,,,,,,,,,,,,,,,,,,,,254.636,256.353,l,0,[],[],[],[],[],[],[],1.037,0,256.354,256.849,,,,,,860,FEM,DIS,150,piedad,el,a,1.037,,256.849,256.849,0.08875,-0.335,0,0,0,,0,88,88,409,1,,,,
,,,,,,e7cc91fb7de369acb548daf2,66a626ef09d4e21e1a8894ec,6734e037acf809f2a2f552fd,2024-11-13_11h29.42.074,Tarea de género gramatical,2024.2.2,MacIntel,71.42857143,,,,,,,,,,,,,,,,,,,,,,,256.851,258.115,a,1,[],[],[],[],[],[],[],0.58,1,258.118,258.616,,,,,,679,FEM,CON,150,celda,,a,0.58,,258.616,258.616,0.08875,-0.335,0,0,0,,0,89,89,228,1,,,,
,,,,,,e7cc91fb7de369acb548daf2,66a626ef09d4e21e1a8894ec,6734e037acf809f2a2f552fd,2024-11-13_11h29.42.074,Tarea de género gramatical,2024.2.2,MacIntel,71.42857143,,,,,,,,,,,,,,,,,,,,,,,258.617,260.071,a,1,[],[],[],[],[],[],[],0.766,1,260.071,260.556,,,,,,824,FEM,DIS,150,herida,el,a,0.766,,260.556,260.556,0.08875,-0.335,0,0,0,,0,90,90,373,1,,,,
,,,,,,e7cc91fb7de369acb548daf2,66a626ef09d4e21e1a8894ec,6734e037acf809f2a2f552fd,2024-11-13_11h29.42.074,Tarea de género gramatical,2024.2.2,MacIntel,71.42857143,,,,,,,,,,,,,,,,,,,,,,,260.558,261.739,a,1,[],[],[],[],[],[],[],0.51,1,261.739,262.234,,,,,,656,FEM,DIS,150,época,el,a,0.51,,262.234,262.235,0.08875,-0.335,0,0,0,,0,91,91,205,1,,,,
,,,,,,e7cc91fb7de369acb548daf2,66a626ef09d4e21e1a8894ec,6734e037acf809f2a2f552fd,2024-11-13_11h29.42.074,Tarea de género gramatical,2024.2.2,MacIntel,71.42857143,,,,,,,,,,,,,,,,,,,,,,,262.237,263.655,l,1,[],[],[],[],[],[],[],0.741,1,263.655,264.151,,,,,,574,MAS,CON,150,clan,,l,0.741,,264.152,264.154,0.08875,-0.335,0,0,0,,0,92,92,123,1,,,,
,,,,,,e7cc91fb7de369acb548daf2,66a626ef09d4e21e1a8894ec,6734e037acf809f2a2f552fd,2024-11-13_11h29.42.074,Tarea de género gramatical,2024.2.2,MacIntel,71.42857143,,,,,,,,,,,,,,,,,,,,,,,264.155,265.336,l,1,[],[],[],[],[],[],[],0.5,1,265.336,265.837,,,,,,490,MAS,CON,150,dios,,l,0.5,,265.837,265.837,0.08875,-0.335,0,0,0,,0,93,93,39,1,,,,
,,,,,,e7cc91fb7de369acb548daf2,66a626ef09d4e21e1a8894ec,6734e037acf809f2a2f552fd,2024-11-13_11h29.42.074,Tarea de género gramatical,2024.2.2,MacIntel,71.42857143,,,,,,,,,,,,,,,,,,,,,,,265.837,267.507,l,1,[],[],[],[],[],[],[],1.008,1,267.507,268.009,,,,,,557,MAS,DIS,150,cubo,la,l,1.008,,268.01,268.01,0.08875,-0.335,0,0,0,,0,94,94,106,1,,,,
,,,,,,e7cc91fb7de369acb548daf2,66a626ef09d4e21e1a8894ec,6734e037acf809f2a2f552fd,2024-11-13_11h29.42.074,Tarea de género gramatical,2024.2.2,MacIntel,71.42857143,,,,,,,,,,,,,,,,,,,,,,,268.011,269.304,a,1,[],[],[],[],[],[],[],0.634,1,269.304,269.803,,,,,,806,FEM,DIS,150,piedra,el,a,0.634,,269.803,269.803,0.08875,-0.335,0,0,0,,0,95,95,355,1,,,,
,,,,,,e7cc91fb7de369acb548daf2,66a626ef09d4e21e1a8894ec,6734e037acf809f2a2f552fd,2024-11-13_11h29.42.074,Tarea de género gramatical,2024.2.2,MacIntel,71.42857143,,,,,,,,,,,,,,,,,,,,,,,269.804,270.939,a,1,[],[],[],[],[],[],[],0.472,1,270.939,271.439,,,,,,687,FEM,AGR,150,ducha,la,a,0.472,,271.439,271.441,0.08875,-0.335,0,0,0,,0,96,96,236,1,,,,
,,,,,,e7cc91fb7de369acb548daf2,66a626ef09d4e21e1a8894ec,6734e037acf809f2a2f552fd,2024-11-13_11h29.42.074,Tarea de género gramatical,2024.2.2,MacIntel,71.42857143,,,,,,,,,,,,,,,,,,,,,,,271.442,272.454,a,1,[],[],[],[],[],[],[],0.337,1,272.455,272.956,,,,,,471,FEM,AGR,150,boca,la,a,0.337,,272.957,272.957,0.08875,-0.335,0,0,0,,0,97,97,20,1,,,,
,,,,,,e7cc91fb7de369acb548daf2,66a626ef09d4e21e1a8894ec,6734e037acf809f2a2f552fd,2024-11-13_11h29.42.074,Tarea de género gramatical,2024.2.2,MacIntel,71.42857143,,,,,,,,,,,,,,,,,,,,,,,272.958,274.063,a,1,[],[],[],[],[],[],[],0.431,1,274.063,274.557,,,,,,469,FEM,CON,150,niña,,a,0.431,,274.557,274.557,0.08875,-0.335,0,0,0,,0,98,98,18,1,,,,
,,,,,,e7cc91fb7de369acb548daf2,66a626ef09d4e21e1a8894ec,6734e037acf809f2a2f552fd,2024-11-13_11h29.42.074,Tarea de género gramatical,2024.2.2,MacIntel,71.42857143,,,,,,,,,,,,,,,,,,,,,,,274.559,275.54,a,1,[],[],[],[],[],[],[],0.307,1,275.54,276.04,,,,,,745,FEM,CON,150,grasa,,a,0.307,,276.04,276.041,0.08875,-0.335,0,0,0,,0,99,99,294,1,,,,
,,,,,,e7cc91fb7de369acb548daf2,66a626ef09d4e21e1a8894ec,6734e037acf809f2a2f552fd,2024-11-13_11h29.42.074,Tarea de género gramatical,2024.2.2,MacIntel,71.42857143,,,,,,,,,,,,,,,,,,,,,,,276.042,277.273,l,1,[],[],[],[],[],[],[],0.568,1,277.273,277.774,,,,,,802,MAS,CON,150,estilo,,l,0.568,,277.775,277.775,0.08875,-0.335,0,0,0,,0,100,100,351,1,,,,
,,,,,,e7cc91fb7de369acb548daf2,66a626ef09d4e21e1a8894ec,6734e037acf809f2a2f552fd,2024-11-13_11h29.42.074,Tarea de género gramatical,2024.2.2,MacIntel,71.42857143,,,,,,,,,,,,,,,,,,,,,,,277.777,279.349,a,0,[],[],[],[],[],[],[],0.91,0,279.35,279.841,,,,,,580,MAS,CON,150,yate,,l,0.91,,279.842,279.843,0.08875,-0.335,0,0,0,,0,101,101,129,1,,,,
,,,,,,e7cc91fb7de369acb548daf2,66a626ef09d4e21e1a8894ec,6734e037acf809f2a2f552fd,2024-11-13_11h29.42.074,Tarea de género gramatical,2024.2.2,MacIntel,71.42857143,,,,,,,,,,,,,,,,,,,,,,,279.844,281.36,a,1,[],[],[],[],[],[],[],0.838,1,281.362,281.86,,,,,,866,FEM,DIS,150,colina,el,a,0.838,,281.86,281.86,0.08875,-0.335,0,0,0,,0,102,102,415,1,,,,
,,,,,,e7cc91fb7de369acb548daf2,66a626ef09d4e21e1a8894ec,6734e037acf809f2a2f552fd,2024-11-13_11h29.42.074,Tarea de género gramatical,2024.2.2,MacIntel,71.42857143,,,,,,,,,,,,,,,,,,,,,,,281.862,283.094,l,1,[],[],[],[],[],[],[],0.552,1,283.094,283.594,,,,,,628,MAS,CON,150,punto,,l,0.552,,283.594,283.594,0.08875,-0.335,0,0,0,,0,103,103,177,1,,,,
,,,,,,e7cc91fb7de369acb548daf2,66a626ef09d4e21e1a8894ec,6734e037acf809f2a2f552fd,2024-11-13_11h29.42.074,Tarea de género gramatical,2024.2.2,MacIntel,71.42857143,,,,,,,,,,,,,,,,,,,,,,,283.596,285.378,l,1,[],[],[],[],[],[],[],1.097,1,285.378,285.878,,,,,,617,MAS,DIS,150,juego,la,l,1.097,,285.878,285.879,0.08875,-0.335,0,0,0,,0,104,104,166,1,,,,
,,,,,,e7cc91fb7de369acb548daf2,66a626ef09d4e21e1a8894ec,6734e037acf809f2a2f552fd,2024-11-13_11h29.42.074,Tarea de género gramatical,2024.2.2,MacIntel,71.42857143,,,,,,,,,,,,,,,,,,,,,,,285.88,286.962,a,1,[],[],[],[],[],[],[],0.402,1,286.963,287.464,,,,,,553,FEM,CON,150,fama,,a,0.402,,287.465,287.466,0.08875,-0.335,0,0,0,,0,105,105,102,1,,,,
,,,,,,e7cc91fb7de369acb548daf2,66a626ef09d4e21e1a8894ec,6734e037acf809f2a2f552fd,2024-11-13_11h29.42.074,Tarea de género gramatical,2024.2.2,MacIntel,71.42857143,,,,,,,,,,,,,,,,,,,,,,,287.467,289.38,l,1,[],[],[],[],[],[],[],1.235,1,289.38,289.881,,,,,,676,MAS,CON,150,color,,l,1.235,,289.881,289.882,0.08875,-0.335,0,0,0,,0,106,106,225,1,,,,
,,,,,,e7cc91fb7de369acb548daf2,66a626ef09d4e21e1a8894ec,6734e037acf809f2a2f552fd,2024-11-13_11h29.42.074,Tarea de género gramatical,2024.2.2,MacIntel,71.42857143,,,,,,,,,,,,,,,,,,,,,,,289.884,291.781,l,1,[],[],[],[],[],[],[],1.222,1,291.781,292.282,,,,,,814,MAS,CON,150,viento,,l,1.222,,292.282,292.282,0.08875,-0.335,0,0,0,,0,107,107,363,1,,,,
,,,,,,e7cc91fb7de369acb548daf2,66a626ef09d4e21e1a8894ec,6734e037acf809f2a2f552fd,2024-11-13_11h29.42.074,Tarea de género gramatical,2024.2.2,MacIntel,71.42857143,,,,,,,,,,,,,,,,,,,,,,,292.284,293.649,l,1,[],[],[],[],[],[],[],0.702,1,293.649,294.148,,,,,,666,MAS,AGR,150,éxito,el,l,0.702,,294.148,294.148,0.08875,-0.335,0,0,0,,0,108,108,215,1,,,,
,,,,,,e7cc91fb7de369acb548daf2,66a626ef09d4e21e1a8894ec,6734e037acf809f2a2f552fd,2024-11-13_11h29.42.074,Tarea de género gramatical,2024.2.2,MacIntel,71.42857143,,,,,,,,,,,,,,,,,,,,,,,294.149,295.717,l,1,[],[],[],[],[],[],[],0.884,1,295.717,296.217,,,,,,616,MAS,CON,150,coche,,l,0.884,,296.218,296.218,0.08875,-0.335,0,0,0,,0,109,109,165,1,,,,
,,,,,,e7cc91fb7de369acb548daf2,66a626ef09d4e21e1a8894ec,6734e037acf809f2a2f552fd,2024-11-13_11h29.42.074,Tarea de género gramatical,2024.2.2,MacIntel,71.42857143,,,,,,,,,,,,,,,,,,,,,,,296.219,297.684,a,1,[],[],[],[],[],[],[],0.792,1,297.684,298.185,,,,,,830,FEM,DIS,150,madera,el,a,0.792,,298.187,298.189,0.08875,-0.335,0,0,0,,0,110,110,379,1,,,,
,,,,,,e7cc91fb7de369acb548daf2,66a626ef09d4e21e1a8894ec,6734e037acf809f2a2f552fd,2024-11-13_11h29.42.074,Tarea de género gramatical,2024.2.2,MacIntel,71.42857143,,,,,,,,,,,,,,,,,,,,,,,298.189,300.452,a,1,[],[],[],[],[],[],[],1.592,1,300.452,300.952,,,,,,765,FEM,AGR,150,manera,la,a,1.592,,300.952,300.952,0.08875,-0.335,0,0,0,,0,111,111,314,1,,,,
,,,,,,e7cc91fb7de369acb548daf2,66a626ef09d4e21e1a8894ec,6734e037acf809f2a2f552fd,2024-11-13_11h29.42.074,Tarea de género gramatical,2024.2.2,MacIntel,71.42857143,,,,,,,,,,,,,,,,,,,,,,,300.954,303.139,l,0,[],[],[],[],[],[],[],1.506,0,303.14,303.637,,,,,,661,FEM,CON,150,salud,,a,1.506,,303.637,303.638,0.08875,-0.335,0,0,0,,0,112,112,210,1,,,,
,,,,,,e7cc91fb7de369acb548daf2,66a626ef09d4e21e1a8894ec,6734e037acf809f2a2f552fd,2024-11-13_11h29.42.074,Tarea de género gramatical,2024.2.2,MacIntel,71.42857143,,,,,,,,,,,,,,,,,,,,,,,303.64,304.755,a,1,[],[],[],[],[],[],[],0.452,1,304.757,305.254,,,,,,823,FEM,CON,150,lluvia,,a,0.452,,305.254,305.256,0.08875,-0.335,0,0,0,,0,113,113,372,1,,,,
,,,,,,e7cc91fb7de369acb548daf2,66a626ef09d4e21e1a8894ec,6734e037acf809f2a2f552fd,2024-11-13_11h29.42.074,Tarea de género gramatical,2024.2.2,MacIntel,71.42857143,,,,,,,,,,,,,,,,,,,,,,,305.257,306.325,a,1,[],[],[],[],[],[],[],0.384,1,306.325,306.821,,,,,,513,FEM,AGR,150,fila,la,a,0.384,,306.823,306.825,0.08875,-0.335,0,0,0,,0,114,114,62,1,,,,
,,,,,,e7cc91fb7de369acb548daf2,66a626ef09d4e21e1a8894ec,6734e037acf809f2a2f552fd,2024-11-13_11h29.42.074,Tarea de género gramatical,2024.2.2,MacIntel,71.42857143,,,,,,,,,,,,,,,,,,,,,,,306.826,308.123,l,1,[],[],[],[],[],[],[],0.617,1,308.124,308.624,,,,,,672,MAS,AGR,150,valor,el,l,0.617,,308.625,308.625,0.08875,-0.335,0,0,0,,0,115,115,221,1,,,,
,,,,,,e7cc91fb7de369acb548daf2,66a626ef09d4e21e1a8894ec,6734e037acf809f2a2f552fd,2024-11-13_11h29.42.074,Tarea de género gramatical,2024.2.2,MacIntel,71.42857143,,,,,,,,,,,,,,,,,,,,,,,308.626,310.523,l,1,[],[],[],[],[],[],[],1.23,1,310.523,311.024,,,,,,575,MAS,DIS,150,bate,la,l,1.23,,311.024,311.024,0.08875,-0.335,0,0,0,,0,116,116,124,1,,,,
,,,,,,e7cc91fb7de369acb548daf2,66a626ef09d4e21e1a8894ec,6734e037acf809f2a2f552fd,2024-11-13_11h29.42.074,Tarea de género gramatical,2024.2.2,MacIntel,71.42857143,,,,,,,,,,,,,,,,,,,,,,,311.025,312.233,a,1,[],[],[],[],[],[],[],0.541,1,312.233,312.725,,,,,,871,FEM,CON,150,novela,,a,0.541,,312.725,312.725,0.08875,-0.335,0,0,0,,0,117,117,420,1,,,,
,,,,,,e7cc91fb7de369acb548daf2,66a626ef09d4e21e1a8894ec,6734e037acf809f2a2f552fd,2024-11-13_11h29.42.074,Tarea de género gramatical,2024.2.2,MacIntel,71.42857143,,,,,,,,,,,,,,,,,,,,,,,312.727,314.626,l,1,[],[],[],[],[],[],[],1.232,1,314.626,315.114,,,,,,749,MAS,DIS,150,rumbo,la,l,1.232,,315.114,315.114,0.08875,-0.335,0,0,0,,0,118,118,298,1,,,,
,,,,,,e7cc91fb7de369acb548daf2,66a626ef09d4e21e1a8894ec,6734e037acf809f2a2f552fd,2024-11-13_11h29.42.074,Tarea de género gramatical,2024.2.2,MacIntel,71.42857143,,,,,,,,,,,,,,,,,,,,,,,315.116,316.193,l,1,[],[],[],[],[],[],[],0.399,1,316.193,316.695,,,,,,604,MAS,CON,150,padre,,l,0.399,,316.696,316.698,0.08875,-0.335,0,0,0,,0,119,119,153,1,,,,
,,,,,,e7cc91fb7de369acb548daf2,66a626ef09d4e21e1a8894ec,6734e037acf809f2a2f552fd,2024-11-13_11h29.42.074,Tarea de género gramatical,2024.2.2,MacIntel,71.42857143,,,,,,,,,,,,,,,,,,,,,,,316.699,318.044,a,1,[],[],[],[],[],[],[],0.672,1,318.045,318.544,,,,,,644,FEM,DIS,150,banda,el,a,0.672,,318.544,318.545,0.08875,-0.335,0,0,0,,0,120,120,193,1,,,,
,,,,,,e7cc91fb7de369acb548daf2,66a626ef09d4e21e1a8894ec,6734e037acf809f2a2f552fd,2024-11-13_11h29.42.074,Tarea de género gramatical,2024.2.2,MacIntel,71.42857143,,,,,,,,,,,,,,,,,,,,,,,318.545,319.647,a,1,[],[],[],[],[],[],[],0.437,1,319.647,320.145,,,,,,817,FEM,CON,150,teoría,,a,0.437,,320.145,320.145,0.08875,-0.335,0,0,0,,0,121,121,366,1,,,,
,,,,,,e7cc91fb7de369acb548daf2,66a626ef09d4e21e1a8894ec,6734e037acf809f2a2f552fd,2024-11-13_11h29.42.074,Tarea de género gramatical,2024.2.2,MacIntel,71.42857143,,,,,,,,,,,,,,,,,,,,,,,320.146,322.213,l,1,[],[],[],[],[],[],[],1.399,1,322.213,322.712,,,,,,827,MAS,DIS,150,jardín,la,l,1.399,,322.712,322.713,0.08875,-0.335,0,0,0,,0,122,122,376,1,,,,
,,,,,,e7cc91fb7de369acb548daf2,66a626ef09d4e21e1a8894ec,6734e037acf809f2a2f552fd,2024-11-13_11h29.42.074,Tarea de género gramatical,2024.2.2,MacIntel,71.42857143,,,,,,,,,,,,,,,,,,,,,,,322.715,324.003,l,1,[],[],[],[],[],[],[],0.624,1,324.003,324.497,,,,,,484,MAS,CON,150,gato,,l,0.624,,324.499,324.501,0.08875,-0.335,0,0,0,,0,123,123,33,1,,,,
,,,,,,e7cc91fb7de369acb548daf2,66a626ef09d4e21e1a8894ec,6734e037acf809f2a2f552fd,2024-11-13_11h29.42.074,Tarea de género gramatical,2024.2.2,MacIntel,71.42857143,,,,,,,,,,,,,,,,,,,,,,,324.501,325.749,a,1,[],[],[],[],[],[],[],0.585,1,325.749,326.248,,,,,,613,FEM,CON,150,calle,,a,0.585,,326.248,326.248,0.08875,-0.335,0,0,0,,0,124,124,162,1,,,,
,,,,,,e7cc91fb7de369acb548daf2,66a626ef09d4e21e1a8894ec,6734e037acf809f2a2f552fd,2024-11-13_11h29.42.074,Tarea de género gramatical,2024.2.2,MacIntel,71.42857143,,,,,,,,,,,,,,,,,,,,,,,326.25,327.849,l,1,[],[],[],[],[],[],[],0.92,1,327.85,328.349,,,,,,785,MAS,DIS,150,montón,la,l,0.92,,328.349,328.349,0.08875,-0.335,0,0,0,,0,125,125,334,1,,,,
,,,,,,e7cc91fb7de369acb548daf2,66a626ef09d4e21e1a8894ec,6734e037acf809f2a2f552fd,2024-11-13_11h29.42.074,Tarea de género gramatical,2024.2.2,MacIntel,71.42857143,,,,,,,,,,,,,,,,,,,,,,,328.351,329.585,a,1,[],[],[],[],[],[],[],0.567,1,329.585,330.083,,,,,,711,FEM,AGR,150,cueva,la,a,0.567,,330.083,330.084,0.08875,-0.335,0,0,0,,0,126,126,260,1,,,,
,,,,,,e7cc91fb7de369acb548daf2,66a626ef09d4e21e1a8894ec,6734e037acf809f2a2f552fd,2024-11-13_11h29.42.074,Tarea de género gramatical,2024.2.2,MacIntel,71.42857143,,,,,,,,,,,,,,,,,,,,,,,330.086,331.205,a,1,[],[],[],[],[],[],[],0.46,1,331.205,331.699,,,,,,609,FEM,AGR,150,clase,la,a,0.46,,331.699,331.699,0.08875,-0.335,0,0,0,,0,127,127,158,1,,,,
,,,,,,e7cc91fb7de369acb548daf2,66a626ef09d4e21e1a8894ec,6734e037acf809f2a2f552fd,2024-11-13_11h29.42.074,Tarea de género gramatical,2024.2.2,MacIntel,71.42857143,,,,,,,,,,,,,,,,,,,,,,,331.7,333.785,a,0,[],[],[],[],[],[],[],1.421,0,333.786,334.284,,,,,,744,MAS,AGR,150,cable,el,l,1.421,,334.287,334.289,0.08875,-0.335,0,0,0,,0,128,128,293,1,,,,
,,,,,,e7cc91fb7de369acb548daf2,66a626ef09d4e21e1a8894ec,6734e037acf809f2a2f552fd,2024-11-13_11h29.42.074,Tarea de género gramatical,2024.2.2,MacIntel,71.42857143,,,,,,,,,,,,,,,,,,,,,,,334.289,335.936,l,1,[],[],[],[],[],[],[],0.979,1,335.938,336.438,,,,,,520,MAS,CON,150,palo,,l,0.979,,336.438,336.438,0.08875,-0.335,0,0,0,,0,129,129,69,1,,,,
,,,,,,e7cc91fb7de369acb548daf2,66a626ef09d4e21e1a8894ec,6734e037acf809f2a2f552fd,2024-11-13_11h29.42.074,Tarea de género gramatical,2024.2.2,MacIntel,71.42857143,,,,,,,,,,,,,,,,,,,,,,,336.439,337.852,l,1,[],[],[],[],[],[],[],0.737,1,337.853,338.353,,,,,,772,MAS,CON,150,minuto,,l,0.737,,338.353,338.353,0.08875,-0.335,0,0,0,,0,130,130,321,1,,,,
,,,,,,e7cc91fb7de369acb548daf2,66a626ef09d4e21e1a8894ec,6734e037acf809f2a2f552fd,2024-11-13_11h29.42.074,Tarea de género gramatical,2024.2.2,MacIntel,71.42857143,,,,,,,,,,,,,,,,,,,,,,,338.353,339.938,l,1,[],[],[],[],[],[],[],0.924,1,339.938,340.438,,,,,,738,MAS,AGR,150,grado,el,l,0.924,,340.438,340.438,0.08875,-0.335,0,0,0,,0,131,131,287,1,,,,
,,,,,,e7cc91fb7de369acb548daf2,66a626ef09d4e21e1a8894ec,6734e037acf809f2a2f552fd,2024-11-13_11h29.42.074,Tarea de género gramatical,2024.2.2,MacIntel,71.42857143,,,,,,,,,,,,,,,,,,,,,,,340.439,341.604,a,1,[],[],[],[],[],[],[],0.503,1,341.605,342.106,,,,,,872,FEM,DIS,150,rutina,el,a,0.503,,342.108,342.109,0.08875,-0.335,0,0,0,,0,132,132,421,1,,,,
,,,,,,e7cc91fb7de369acb548daf2,66a626ef09d4e21e1a8894ec,6734e037acf809f2a2f552fd,2024-11-13_11h29.42.074,Tarea de género gramatical,2024.2.2,MacIntel,71.42857143,,,,,,,,,,,,,,,,,,,,,,,342.11,343.689,l,1,[],[],[],[],[],[],[],0.917,1,343.69,344.189,,,,,,688,MAS,CON,150,norte,,l,0.917,,344.189,344.189,0.08875,-0.335,0,0,0,,0,133,133,237,1,,,,
,,,,,,e7cc91fb7de369acb548daf2,66a626ef09d4e21e1a8894ec,6734e037acf809f2a2f552fd,2024-11-13_11h29.42.074,Tarea de género gramatical,2024.2.2,MacIntel,71.42857143,,,,,,,,,,,,,,,,,,,,,,,344.19,346.174,l,1,[],[],[],[],[],[],[],1.304,1,346.174,346.676,,,,,,630,MAS,AGR,150,fuego,el,l,1.304,,346.676,346.676,0.08875,-0.335,0,0,0,,0,134,134,179,1,,,,
,,,,,,e7cc91fb7de369acb548daf2,66a626ef09d4e21e1a8894ec,6734e037acf809f2a2f552fd,2024-11-13_11h29.42.074,Tarea de género gramatical,2024.2.2,MacIntel,71.42857143,,,,,,,,,,,,,,,,,,,,,,,346.677,347.807,a,1,[],[],[],[],[],[],[],0.453,1,347.808,348.308,,,,,,704,FEM,DIS,150,caída,el,a,0.453,,348.308,348.308,0.08875,-0.335,0,0,0,,0,135,135,253,1,,,,
,,,,,,e7cc91fb7de369acb548daf2,66a626ef09d4e21e1a8894ec,6734e037acf809f2a2f552fd,2024-11-13_11h29.42.074,Tarea de género gramatical,2024.2.2,MacIntel,71.42857143,,,,,,,,,,,,,,,,,,,,,,,348.309,349.833,l,1,[],[],[],[],[],[],[],0.863,1,349.833,350.326,,,,,,701,MAS,DIS,150,dueño,la,l,0.863,,350.326,350.326,0.08875,-0.335,0,0,0,,0,136,136,250,1,,,,
,,,,,,e7cc91fb7de369acb548daf2,66a626ef09d4e21e1a8894ec,6734e037acf809f2a2f552fd,2024-11-13_11h29.42.074,Tarea de género gramatical,2024.2.2,MacIntel,71.42857143,,,,,,,,,,,,,,,,,,,,,,,350.326,351.809,l,1,[],[],[],[],[],[],[],0.821,1,351.809,352.309,,,,,,869,MAS,DIS,150,cuento,la,l,0.821,,352.31,352.312,0.08875,-0.335,0,0,0,,0,137,137,418,1,,,,
,,,,,,e7cc91fb7de369acb548daf2,66a626ef09d4e21e1a8894ec,6734e037acf809f2a2f552fd,2024-11-13_11h29.42.074,Tarea de género gramatical,2024.2.2,MacIntel,71.42857143,,,,,,,,,,,,,,,,,,,,,,,352.312,354.009,a,1,[],[],[],[],[],[],[],1.026,1,354.01,354.511,,,,,,717,FEM,AGR,150,barba,la,a,1.026,,354.511,354.511,0.08875,-0.335,0,0,0,,0,138,138,266,1,,,,
,,,,,,e7cc91fb7de369acb548daf2,66a626ef09d4e21e1a8894ec,6734e037acf809f2a2f552fd,2024-11-13_11h29.42.074,Tarea de género gramatical,2024.2.2,MacIntel,71.42857143,,,,,,,,,,,,,,,,,,,,,,,354.511,355.695,a,1,[],[],[],[],[],[],[],0.499,1,355.695,356.195,,,,,,555,FEM,AGR,150,jefa,la,a,0.499,,356.195,356.196,0.08875,-0.335,0,0,0,,0,139,139,104,1,,,,
,,,,,,e7cc91fb7de369acb548daf2,66a626ef09d4e21e1a8894ec,6734e037acf809f2a2f552fd,2024-11-13_11h29.42.074,Tarea de género gramatical,2024.2.2,MacIntel,71.42857143,,,,,,,,,,,,,,,,,,,,,,,356.197,358.012,a,1,[],[],[],[],[],[],[],1.132,1,358.012,358.513,,,,,,476,FEM,DIS,150,pena,el,a,1.132,,358.514,358.514,0.08875,-0.335,0,0,0,,0,140,140,25,1,,,,
,,,,,,e7cc91fb7de369acb548daf2,66a626ef09d4e21e1a8894ec,6734e037acf809f2a2f552fd,2024-11-13_11h29.42.074,Tarea de género gramatical,2024.2.2,MacIntel,71.42857143,,,,,,,,,,,,,,,,,,,,,,,358.515,359.78,a,1,[],[],[],[],[],[],[],0.591,1,359.78,360.279,,,,,,489,FEM,AGR,150,luna,la,a,0.591,,360.28,360.282,0.08875,-0.335,0,0,0,,0,141,141,38,1,,,,
,,,,,,e7cc91fb7de369acb548daf2,66a626ef09d4e21e1a8894ec,6734e037acf809f2a2f552fd,2024-11-13_11h29.42.074,Tarea de género gramatical,2024.2.2,MacIntel,71.42857143,,,,,,,,,,,,,,,,,,,,,,,360.282,361.664,a,1,[],[],[],[],[],[],[],0.704,1,361.665,362.165,,,,,,481,FEM,CON,150,edad,,a,0.704,,362.166,362.166,0.08875,-0.335,0,0,0,,0,142,142,30,1,,,,
,,,,,,e7cc91fb7de369acb548daf2,66a626ef09d4e21e1a8894ec,6734e037acf809f2a2f552fd,2024-11-13_11h29.42.074,Tarea de género gramatical,2024.2.2,MacIntel,71.42857143,,,,,,,,,,,,,,,,,,,,,,,362.167,364.102,l,1,[],[],[],[],[],[],[],1.236,1,364.102,364.598,,,,,,456,MAS,AGR,150,lado,el,l,1.236,,364.598,364.598,0.08875,-0.335,0,0,0,,0,143,143,5,1,,,,
,,,,,,e7cc91fb7de369acb548daf2,66a626ef09d4e21e1a8894ec,6734e037acf809f2a2f552fd,2024-11-13_11h29.42.074,Tarea de género gramatical,2024.2.2,MacIntel,71.42857143,,,,,,,,,,,,,,,,,,,,,,,364.599,365.916,l,1,[],[],[],[],[],[],[],0.63,1,365.916,366.416,,,,,,540,MAS,AGR,150,león,el,l,0.63,,366.417,366.417,0.08875,-0.335,0,0,0,,0,144,144,89,1,,,,
,,,,,,e7cc91fb7de369acb548daf2,66a626ef09d4e21e1a8894ec,6734e037acf809f2a2f552fd,2024-11-13_11h29.42.074,Tarea de género gramatical,2024.2.2,MacIntel,71.42857143,,,,,,,,,,,,,,,,,,,,,,,366.42,367.704,l,1,[],[],[],[],[],[],[],0.606,1,367.704,368.2,,,,,,784,MAS,CON,150,ataque,,l,0.606,,368.2,368.2,0.08875,-0.335,0,0,0,,0,145,145,333,1,,,,
,,,,,,e7cc91fb7de369acb548daf2,66a626ef09d4e21e1a8894ec,6734e037acf809f2a2f552fd,2024-11-13_11h29.42.074,Tarea de género gramatical,2024.2.2,MacIntel,71.42857143,,,,,,,,,,,,,,,,,,,,,,,368.201,369.367,a,1,[],[],[],[],[],[],[],0.5,1,369.367,369.868,,,,,,585,FEM,AGR,150,raíz,la,a,0.5,,369.869,369.871,0.08875,-0.335,0,0,0,,0,146,146,134,1,,,,
,,,,,,e7cc91fb7de369acb548daf2,66a626ef09d4e21e1a8894ec,6734e037acf809f2a2f552fd,2024-11-13_11h29.42.074,Tarea de género gramatical,2024.2.2,MacIntel,71.42857143,,,,,,,,,,,,,,,,,,,,,,,369.871,371.186,l,1,[],[],[],[],[],[],[],0.635,1,371.186,371.687,,,,,,646,MAS,CON,150,barco,,l,0.635,,371.687,371.687,0.08875,-0.335,0,0,0,,0,147,147,195,1,,,,
,,,,,,e7cc91fb7de369acb548daf2,66a626ef09d4e21e1a8894ec,6734e037acf809f2a2f552fd,2024-11-13_11h29.42.074,Tarea de género gramatical,2024.2.2,MacIntel,71.42857143,,,,,,,,,,,,,,,,,,,,,,,371.689,373.487,a,1,[],[],[],[],[],[],[],1.127,1,373.487,373.987,,,,,,686,FEM,DIS,150,deuda,el,a,1.127,,373.987,373.987,0.08875,-0.335,0,0,0,,0,148,148,235,1,,,,
,,,,,,e7cc91fb7de369acb548daf2,66a626ef09d4e21e1a8894ec,6734e037acf809f2a2f552fd,2024-11-13_11h29.42.074,Tarea de género gramatical,2024.2.2,MacIntel,71.42857143,,,,,,,,,,,,,,,,,,,,,,,373.988,375.437,l,0,[],[],[],[],[],[],[],0.769,0,375.438,375.938,,,,,,884,FEM,DIS,150,corona,el,a,0.769,,375.938,375.938,0.08875,-0.335,0,0,0,,0,149,149,433,1,,,,
,,,,,,e7cc91fb7de369acb548daf2,66a626ef09d4e21e1a8894ec,6734e037acf809f2a2f552fd,2024-11-13_11h29.42.074,Tarea de género gramatical,2024.2.2,MacIntel,71.42857143,,,,,,,,,,,,,,,,,,,,,,,375.939,377.372,l,1,[],[],[],[],[],[],[],0.755,1,377.374,377.872,,,,,,635,MAS,DIS,150,sueño,la,l,0.755,,377.874,741.362,-0.6275,-0.26875,0,0,0,space,0,150,150,184,1,363.436,,,
,,,,,,e7cc91fb7de369acb548daf2,66a626ef09d4e21e1a8894ec,6734e037acf809f2a2f552fd,2024-11-13_11h29.42.074,Tarea de género gramatical,2024.2.2,MacIntel,71.42857143,,,,,,,,,,,,,,,,,,,,,,,741.365,742.83,l,1,[],[],[],[],[],[],[],0.779,1,742.831,743.329,,,,,,780,MAS,AGR,150,estado,el,l,0.779,,743.329,743.33,-0.6275,-0.26875,0,0,0,,0,151,151,329,1,,,,
,,,,,,e7cc91fb7de369acb548daf2,66a626ef09d4e21e1a8894ec,6734e037acf809f2a2f552fd,2024-11-13_11h29.42.074,Tarea de género gramatical,2024.2.2,MacIntel,71.42857143,,,,,,,,,,,,,,,,,,,,,,,743.331,744.564,a,1,[],[],[],[],[],[],[],0.559,1,744.564,745.063,,,,,,883,FEM,CON,150,huella,,a,0.559,,745.063,745.064,-0.6275,-0.26875,0,0,0,,0,152,152,432,1,,,,
,,,,,,e7cc91fb7de369acb548daf2,66a626ef09d4e21e1a8894ec,6734e037acf809f2a2f552fd,2024-11-13_11h29.42.074,Tarea de género gramatical,2024.2.2,MacIntel,71.42857143,,,,,,,,,,,,,,,,,,,,,,,745.066,746.485,l,1,[],[],[],[],[],[],[],0.738,1,746.485,746.981,,,,,,815,MAS,DIS,150,código,la,l,0.738,,746.981,746.982,-0.6275,-0.26875,0,0,0,,0,153,153,364,1,,,,
,,,,,,e7cc91fb7de369acb548daf2,66a626ef09d4e21e1a8894ec,6734e037acf809f2a2f552fd,2024-11-13_11h29.42.074,Tarea de género gramatical,2024.2.2,MacIntel,71.42857143,,,,,,,,,,,,,,,,,,,,,,,746.983,748.865,l,1,[],[],[],[],[],[],[],1.21,1,748.865,749.365,,,,,,689,MAS,DIS,150,reloj,la,l,1.21,,749.365,749.365,-0.6275,-0.26875,0,0,0,,0,154,154,238,1,,,,
,,,,,,e7cc91fb7de369acb548daf2,66a626ef09d4e21e1a8894ec,6734e037acf809f2a2f552fd,2024-11-13_11h29.42.074,Tarea de género gramatical,2024.2.2,MacIntel,71.42857143,,,,,,,,,,,,,,,,,,,,,,,749.367,751.1,a,1,[],[],[],[],[],[],[],1.047,1,751.1,751.6,,,,,,632,FEM,DIS,150,prisa,el,a,1.047,,751.602,751.605,-0.6275,-0.26875,0,0,0,,0,155,155,181,1,,,,
,,,,,,e7cc91fb7de369acb548daf2,66a626ef09d4e21e1a8894ec,6734e037acf809f2a2f552fd,2024-11-13_11h29.42.074,Tarea de género gramatical,2024.2.2,MacIntel,71.42857143,,,,,,,,,,,,,,,,,,,,,,,751.606,752.999,l,1,[],[],[],[],[],[],[],0.715,1,752.999,753.506,,,,,,588,MAS,AGR,150,luto,el,l,0.715,,753.507,753.507,-0.6275,-0.26875,0,0,0,,0,156,156,137,1,,,,
,,,,,,e7cc91fb7de369acb548daf2,66a626ef09d4e21e1a8894ec,6734e037acf809f2a2f552fd,2024-11-13_11h29.42.074,Tarea de género gramatical,2024.2.2,MacIntel,71.42857143,,,,,,,,,,,,,,,,,,,,,,,753.508,755.36,l,0,[],[],[],[],[],[],[],1.185,0,755.36,755.851,,,,,,757,FEM,CON,150,suerte,,a,1.185,,755.852,755.852,-0.6275,-0.26875,0,0,0,,0,157,157,306,1,,,,
,,,,,,e7cc91fb7de369acb548daf2,66a626ef09d4e21e1a8894ec,6734e037acf809f2a2f552fd,2024-11-13_11h29.42.074,Tarea de género gramatical,2024.2.2,MacIntel,71.42857143,,,,,,,,,,,,,,,,,,,,,,,755.854,757.186,a,1,[],[],[],[],[],[],[],0.659,1,757.187,757.686,,,,,,723,FEM,AGR,150,tarta,la,a,0.659,,757.687,757.688,-0.6275,-0.26875,0,0,0,,0,158,158,272,1,,,,
,,,,,,e7cc91fb7de369acb548daf2,66a626ef09d4e21e1a8894ec,6734e037acf809f2a2f552fd,2024-11-13_11h29.42.074,Tarea de género gramatical,2024.2.2,MacIntel,71.42857143,,,,,,,,,,,,,,,,,,,,,,,757.689,759.218,a,1,[],[],[],[],[],[],[],0.849,1,759.218,759.719,,,,,,848,FEM,DIS,150,hierba,el,a,0.849,,759.72,759.722,-0.6275,-0.26875,0,0,0,,0,159,159,397,1,,,,
,,,,,,e7cc91fb7de369acb548daf2,66a626ef09d4e21e1a8894ec,6734e037acf809f2a2f552fd,2024-11-13_11h29.42.074,Tarea de género gramatical,2024.2.2,MacIntel,71.42857143,,,,,,,,,,,,,,,,,,,,,,,759.722,761.069,l,1,[],[],[],[],[],[],[],0.669,1,761.069,761.569,,,,,,478,MAS,CON,150,club,,l,0.669,,761.569,761.569,-0.6275,-0.26875,0,0,0,,0,160,160,27,1,,,,
,,,,,,e7cc91fb7de369acb548daf2,66a626ef09d4e21e1a8894ec,6734e037acf809f2a2f552fd,2024-11-13_11h29.42.074,Tarea de género gramatical,2024.2.2,MacIntel,71.42857143,,,,,,,,,,,,,,,,,,,,,,,761.57,763.054,l,1,[],[],[],[],[],[],[],0.823,1,763.054,763.544,,,,,,798,MAS,AGR,150,anillo,el,l,0.823,,763.545,763.545,-0.6275,-0.26875,0,0,0,,0,161,161,347,1,,,,
,,,,,,e7cc91fb7de369acb548daf2,66a626ef09d4e21e1a8894ec,6734e037acf809f2a2f552fd,2024-11-13_11h29.42.074,Tarea de género gramatical,2024.2.2,MacIntel,71.42857143,,,,,,,,,,,,,,,,,,,,,,,763.546,764.855,l,1,[],[],[],[],[],[],[],0.635,1,764.856,765.358,,,,,,810,MAS,AGR,150,puente,el,l,0.635,,765.358,765.358,-0.6275,-0.26875,0,0,0,,0,162,162,359,1,,,,
,,,,,,e7cc91fb7de369acb548daf2,66a626ef09d4e21e1a8894ec,6734e037acf809f2a2f552fd,2024-11-13_11h29.42.074,Tarea de género gramatical,2024.2.2,MacIntel,71.42857143,,,,,,,,,,,,,,,,,,,,,,,765.36,766.424,l,1,[],[],[],[],[],[],[],0.392,1,766.424,766.922,,,,,,714,MAS,AGR,150,pollo,el,l,0.392,,766.922,766.922,-0.6275,-0.26875,0,0,0,,0,163,163,263,1,,,,
,,,,,,e7cc91fb7de369acb548daf2,66a626ef09d4e21e1a8894ec,6734e037acf809f2a2f552fd,2024-11-13_11h29.42.074,Tarea de género gramatical,2024.2.2,MacIntel,71.42857143,,,,,,,,,,,,,,,,,,,,,,,766.923,768.475,a,1,[],[],[],[],[],[],[],0.882,1,768.475,768.974,,,,,,488,FEM,DIS,150,obra,el,a,0.882,,768.977,768.978,-0.6275,-0.26875,0,0,0,,0,164,164,37,1,,,,
,,,,,,e7cc91fb7de369acb548daf2,66a626ef09d4e21e1a8894ec,6734e037acf809f2a2f552fd,2024-11-13_11h29.42.074,Tarea de género gramatical,2024.2.2,MacIntel,71.42857143,,,,,,,,,,,,,,,,,,,,,,,768.979,770.827,a,1,[],[],[],[],[],[],[],1.176,1,770.827,771.328,,,,,,897,FEM,AGR,150,lógica,la,a,1.176,,771.328,771.328,-0.6275,-0.26875,0,0,0,,0,165,165,446,1,,,,
,,,,,,e7cc91fb7de369acb548daf2,66a626ef09d4e21e1a8894ec,6734e037acf809f2a2f552fd,2024-11-13_11h29.42.074,Tarea de género gramatical,2024.2.2,MacIntel,71.42857143,,,,,,,,,,,,,,,,,,,,,,,771.33,773.162,l,1,[],[],[],[],[],[],[],1.163,1,773.163,773.66,,,,,,670,MAS,CON,150,huevo,,l,1.163,,773.66,773.66,-0.6275,-0.26875,0,0,0,,0,166,166,219,1,,,,
,,,,,,e7cc91fb7de369acb548daf2,66a626ef09d4e21e1a8894ec,6734e037acf809f2a2f552fd,2024-11-13_11h29.42.074,Tarea de género gramatical,2024.2.2,MacIntel,71.42857143,,,,,,,,,,,,,,,,,,,,,,,773.661,775.229,a,1,[],[],[],[],[],[],[],0.902,1,775.229,775.73,,,,,,523,FEM,CON,150,roca,,a,0.902,,775.73,775.731,-0.6275,-0.26875,0,0,0,,0,167,167,72,1,,,,
,,,,,,e7cc91fb7de369acb548daf2,66a626ef09d4e21e1a8894ec,6734e037acf809f2a2f552fd,2024-11-13_11h29.42.074,Tarea de género gramatical,2024.2.2,MacIntel,71.42857143,,,,,,,,,,,,,,,,,,,,,,,775.731,777.216,l,1,[],[],[],[],[],[],[],0.814,1,777.216,777.713,,,,,,845,MAS,DIS,150,correo,la,l,0.814,,777.714,777.716,-0.6275,-0.26875,0,0,0,,0,168,168,394,1,,,,
,,,,,,e7cc91fb7de369acb548daf2,66a626ef09d4e21e1a8894ec,6734e037acf809f2a2f552fd,2024-11-13_11h29.42.074,Tarea de género gramatical,2024.2.2,MacIntel,71.42857143,,,,,,,,,,,,,,,,,,,,,,,777.717,779.065,l,1,[],[],[],[],[],[],[],0.672,1,779.065,779.564,,,,,,516,MAS,AGR,150,muro,el,l,0.672,,779.564,779.564,-0.6275,-0.26875,0,0,0,,0,169,169,65,1,,,,
,,,,,,e7cc91fb7de369acb548daf2,66a626ef09d4e21e1a8894ec,6734e037acf809f2a2f552fd,2024-11-13_11h29.42.074,Tarea de género gramatical,2024.2.2,MacIntel,71.42857143,,,,,,,,,,,,,,,,,,,,,,,779.566,780.931,l,1,[],[],[],[],[],[],[],0.683,1,780.931,781.431,,,,,,702,MAS,AGR,150,viejo,el,l,0.683,,781.431,781.431,-0.6275,-0.26875,0,0,0,,0,170,170,251,1,,,,
,,,,,,e7cc91fb7de369acb548daf2,66a626ef09d4e21e1a8894ec,6734e037acf809f2a2f552fd,2024-11-13_11h29.42.074,Tarea de género gramatical,2024.2.2,MacIntel,71.42857143,,,,,,,,,,,,,,,,,,,,,,,781.431,782.869,a,1,[],[],[],[],[],[],[],0.776,1,782.869,783.363,,,,,,457,FEM,CON,150,hora,,a,0.776,,783.363,783.363,-0.6275,-0.26875,0,0,0,,0,171,171,6,1,,,,
,,,,,,e7cc91fb7de369acb548daf2,66a626ef09d4e21e1a8894ec,6734e037acf809f2a2f552fd,2024-11-13_11h29.42.074,Tarea de género gramatical,2024.2.2,MacIntel,71.42857143,,,,,,,,,,,,,,,,,,,,,,,783.364,784.594,a,1,[],[],[],[],[],[],[],0.562,1,784.594,785.083,,,,,,463,FEM,CON,150,hija,,a,0.562,,785.083,785.084,-0.6275,-0.26875,0,0,0,,0,172,172,12,1,,,,
,,,,,,e7cc91fb7de369acb548daf2,66a626ef09d4e21e1a8894ec,6734e037acf809f2a2f552fd,2024-11-13_11h29.42.074,Tarea de género gramatical,2024.2.2,MacIntel,71.42857143,,,,,,,,,,,,,,,,,,,,,,,785.084,786.467,a,1,[],[],[],[],[],[],[],0.717,1,786.468,786.971,,,,,,651,FEM,AGR,150,leche,la,a,0.717,,786.971,786.973,-0.6275,-0.26875,0,0,0,,0,173,173,200,1,,,,
,,,,,,e7cc91fb7de369acb548daf2,66a626ef09d4e21e1a8894ec,6734e037acf809f2a2f552fd,2024-11-13_11h29.42.074,Tarea de género gramatical,2024.2.2,MacIntel,71.42857143,,,,,,,,,,,,,,,,,,,,,,,786.974,788.517,l,1,[],[],[],[],[],[],[],0.864,1,788.517,789.017,,,,,,678,MAS,AGR,150,nivel,el,l,0.864,,789.017,789.018,-0.6275,-0.26875,0,0,0,,0,174,174,227,1,,,,
,,,,,,e7cc91fb7de369acb548daf2,66a626ef09d4e21e1a8894ec,6734e037acf809f2a2f552fd,2024-11-13_11h29.42.074,Tarea de género gramatical,2024.2.2,MacIntel,71.42857143,,,,,,,,,,,,,,,,,,,,,,,789.019,790.251,a,1,[],[],[],[],[],[],[],0.559,1,790.251,790.757,,,,,,770,FEM,DIS,150,fiesta,el,a,0.559,,790.757,790.757,-0.6275,-0.26875,0,0,0,,0,175,175,319,1,,,,
,,,,,,e7cc91fb7de369acb548daf2,66a626ef09d4e21e1a8894ec,6734e037acf809f2a2f552fd,2024-11-13_11h29.42.074,Tarea de género gramatical,2024.2.2,MacIntel,71.42857143,,,,,,,,,,,,,,,,,,,,,,,790.759,791.901,a,1,[],[],[],[],[],[],[],0.468,1,791.901,792.401,,,,,,519,FEM,AGR,150,rata,la,a,0.468,,792.401,792.402,-0.6275,-0.26875,0,0,0,,0,176,176,68,1,,,,
,,,,,,e7cc91fb7de369acb548daf2,66a626ef09d4e21e1a8894ec,6734e037acf809f2a2f552fd,2024-11-13_11h29.42.074,Tarea de género gramatical,2024.2.2,MacIntel,71.42857143,,,,,,,,,,,,,,,,,,,,,,,792.403,793.54,l,1,[],[],[],[],[],[],[],0.474,1,793.54,794.037,,,,,,647,MAS,DIS,150,avión,la,l,0.474,,794.037,794.039,-0.6275,-0.26875,0,0,0,,0,177,177,196,1,,,,
,,,,,,e7cc91fb7de369acb548daf2,66a626ef09d4e21e1a8894ec,6734e037acf809f2a2f552fd,2024-11-13_11h29.42.074,Tarea de género gramatical,2024.2.2,MacIntel,71.42857143,,,,,,,,,,,,,,,,,,,,,,,794.04,795.12,l,1,[],[],[],[],[],[],[],0.403,1,795.12,795.621,,,,,,731,MAS,DIS,150,actor,la,l,0.403,,795.621,795.622,-0.6275,-0.26875,0,0,0,,0,178,178,280,1,,,,
,,,,,,e7cc91fb7de369acb548daf2,66a626ef09d4e21e1a8894ec,6734e037acf809f2a2f552fd,2024-11-13_11h29.42.074,Tarea de género gramatical,2024.2.2,MacIntel,71.42857143,,,,,,,,,,,,,,,,,,,,,,,795.624,796.805,a,1,[],[],[],[],[],[],[],0.513,1,796.805,797.305,,,,,,529,FEM,CON,150,mina,,a,0.513,,797.305,797.305,-0.6275,-0.26875,0,0,0,,0,179,179,78,1,,,,
,,,,,,e7cc91fb7de369acb548daf2,66a626ef09d4e21e1a8894ec,6734e037acf809f2a2f552fd,2024-11-13_11h29.42.074,Tarea de género gramatical,2024.2.2,MacIntel,71.42857143,,,,,,,,,,,,,,,,,,,,,,,797.307,798.376,l,1,[],[],[],[],[],[],[],0.394,1,798.376,798.872,,,,,,605,MAS,DIS,150,mundo,la,l,0.394,,798.872,798.872,-0.6275,-0.26875,0,0,0,,0,180,180,154,1,,,,
,,,,,,e7cc91fb7de369acb548daf2,66a626ef09d4e21e1a8894ec,6734e037acf809f2a2f552fd,2024-11-13_11h29.42.074,Tarea de género gramatical,2024.2.2,MacIntel,71.42857143,,,,,,,,,,,,,,,,,,,,,,,798.874,799.94,l,1,[],[],[],[],[],[],[],0.394,1,799.94,800.481,,,,,,892,MAS,CON,150,cuadro,,l,0.394,,800.481,800.481,-0.6275,-0.26875,0,0,0,,0,181,181,441,1,,,,
,,,,,,e7cc91fb7de369acb548daf2,66a626ef09d4e21e1a8894ec,6734e037acf809f2a2f552fd,2024-11-13_11h29.42.074,Tarea de género gramatical,2024.2.2,MacIntel,71.42857143,,,,,,,,,,,,,,,,,,,,,,,800.482,802.04,l,1,[],[],[],[],[],[],[],0.888,1,802.04,802.53,,,,,,779,MAS,DIS,150,futuro,la,l,0.888,,802.532,802.533,-0.6275,-0.26875,0,0,0,,0,182,182,328,1,,,,
,,,,,,e7cc91fb7de369acb548daf2,66a626ef09d4e21e1a8894ec,6734e037acf809f2a2f552fd,2024-11-13_11h29.42.074,Tarea de género gramatical,2024.2.2,MacIntel,71.42857143,,,,,,,,,,,,,,,,,,,,,,,802.534,803.591,a,1,[],[],[],[],[],[],[],0.392,1,803.592,804.091,,,,,,607,FEM,CON,150,madre,,a,0.392,,804.091,804.091,-0.6275,-0.26875,0,0,0,,0,183,183,156,1,,,,
,,,,,,e7cc91fb7de369acb548daf2,66a626ef09d4e21e1a8894ec,6734e037acf809f2a2f552fd,2024-11-13_11h29.42.074,Tarea de género gramatical,2024.2.2,MacIntel,71.42857143,,,,,,,,,,,,,,,,,,,,,,,804.094,805.377,l,1,[],[],[],[],[],[],[],0.605,1,805.377,805.874,,,,,,539,MAS,DIS,150,maíz,la,l,0.605,,805.874,805.874,-0.6275,-0.26875,0,0,0,,0,184,184,88,1,,,,
,,,,,,e7cc91fb7de369acb548daf2,66a626ef09d4e21e1a8894ec,6734e037acf809f2a2f552fd,2024-11-13_11h29.42.074,Tarea de género gramatical,2024.2.2,MacIntel,71.42857143,,,,,,,,,,,,,,,,,,,,,,,805.875,806.911,l,1,[],[],[],[],[],[],[],0.354,1,806.911,807.402,,,,,,778,MAS,CON,150,asunto,,l,0.354,,807.402,807.402,-0.6275,-0.26875,0,0,0,,0,185,185,327,1,,,,
,,,,,,e7cc91fb7de369acb548daf2,66a626ef09d4e21e1a8894ec,6734e037acf809f2a2f552fd,2024-11-13_11h29.42.074,Tarea de género gramatical,2024.2.2,MacIntel,71.42857143,,,,,,,,,,,,,,,,,,,,,,,807.403,808.593,l,1,[],[],[],[],[],[],[],0.526,1,808.594,809.093,,,,,,857,MAS,DIS,150,jurado,la,l,0.526,,809.094,809.096,-0.6275,-0.26875,0,0,0,,0,186,186,406,1,,,,
,,,,,,e7cc91fb7de369acb548daf2,66a626ef09d4e21e1a8894ec,6734e037acf809f2a2f552fd,2024-11-13_11h29.42.074,Tarea de género gramatical,2024.2.2,MacIntel,71.42857143,,,,,,,,,,,,,,,,,,,,,,,809.097,810.176,a,1,[],[],[],[],[],[],[],0.4,1,810.176,810.677,,,,,,801,FEM,AGR,150,espada,la,a,0.4,,810.678,810.679,-0.6275,-0.26875,0,0,0,,0,187,187,350,1,,,,
,,,,,,e7cc91fb7de369acb548daf2,66a626ef09d4e21e1a8894ec,6734e037acf809f2a2f552fd,2024-11-13_11h29.42.074,Tarea de género gramatical,2024.2.2,MacIntel,71.42857143,,,,,,,,,,,,,,,,,,,,,,,810.68,812.145,l,1,[],[],[],[],[],[],[],0.789,1,812.145,812.644,,,,,,894,MAS,AGR,150,límite,el,l,0.789,,812.645,812.645,-0.6275,-0.26875,0,0,0,,0,188,188,443,1,,,,
,,,,,,e7cc91fb7de369acb548daf2,66a626ef09d4e21e1a8894ec,6734e037acf809f2a2f552fd,2024-11-13_11h29.42.074,Tarea de género gramatical,2024.2.2,MacIntel,71.42857143,,,,,,,,,,,,,,,,,,,,,,,812.647,813.729,l,1,[],[],[],[],[],[],[],0.408,1,813.729,814.229,,,,,,712,MAS,CON,150,video,,l,0.408,,814.229,814.23,-0.6275,-0.26875,0,0,0,,0,189,189,261,1,,,,
,,,,,,e7cc91fb7de369acb548daf2,66a626ef09d4e21e1a8894ec,6734e037acf809f2a2f552fd,2024-11-13_11h29.42.074,Tarea de género gramatical,2024.2.2,MacIntel,71.42857143,,,,,,,,,,,,,,,,,,,,,,,814.232,815.396,a,1,[],[],[],[],[],[],[],0.484,1,815.396,815.896,,,,,,603,FEM,AGR,150,mujer,la,a,0.484,,815.896,815.897,-0.6275,-0.26875,0,0,0,,0,190,190,152,1,,,,
,,,,,,e7cc91fb7de369acb548daf2,66a626ef09d4e21e1a8894ec,6734e037acf809f2a2f552fd,2024-11-13_11h29.42.074,Tarea de género gramatical,2024.2.2,MacIntel,71.42857143,,,,,,,,,,,,,,,,,,,,,,,815.899,817.354,l,0,[],[],[],[],[],[],[],0.772,0,817.355,817.847,,,,,,895,FEM,CON,150,bondad,,a,0.772,,817.848,817.85,-0.6275,-0.26875,0,0,0,,0,191,191,444,1,,,,
,,,,,,e7cc91fb7de369acb548daf2,66a626ef09d4e21e1a8894ec,6734e037acf809f2a2f552fd,2024-11-13_11h29.42.074,Tarea de género gramatical,2024.2.2,MacIntel,71.42857143,,,,,,,,,,,,,,,,,,,,,,,817.851,819.151,l,1,[],[],[],[],[],[],[],0.636,1,819.152,819.649,,,,,,720,MAS,AGR,150,queso,el,l,0.636,,819.649,819.649,-0.6275,-0.26875,0,0,0,,0,192,192,269,1,,,,
,,,,,,e7cc91fb7de369acb548daf2,66a626ef09d4e21e1a8894ec,6734e037acf809f2a2f552fd,2024-11-13_11h29.42.074,Tarea de género gramatical,2024.2.2,MacIntel,71.42857143,,,,,,,,,,,,,,,,,,,,,,,819.651,820.837,l,1,[],[],[],[],[],[],[],0.506,1,820.838,821.336,,,,,,754,MAS,CON,150,tiempo,,l,0.506,,821.336,821.336,-0.6275,-0.26875,0,0,0,,0,193,193,303,1,,,,
,,,,,,e7cc91fb7de369acb548daf2,66a626ef09d4e21e1a8894ec,6734e037acf809f2a2f552fd,2024-11-13_11h29.42.074,Tarea de género gramatical,2024.2.2,MacIntel,71.42857143,,,,,,,,,,,,,,,,,,,,,,,821.337,823.075,a,1,[],[],[],[],[],[],[],1.079,1,823.075,823.567,,,,,,703,FEM,CON,150,aldea,,a,1.079,,823.567,823.568,-0.6275,-0.26875,0,0,0,,0,194,194,252,1,,,,
,,,,,,e7cc91fb7de369acb548daf2,66a626ef09d4e21e1a8894ec,6734e037acf809f2a2f552fd,2024-11-13_11h29.42.074,Tarea de género gramatical,2024.2.2,MacIntel,71.42857143,,,,,,,,,,,,,,,,,,,,,,,823.569,824.835,l,1,[],[],[],[],[],[],[],0.607,1,824.835,825.325,,,,,,502,MAS,CON,150,lago,,l,0.607,,825.326,825.327,-0.6275,-0.26875,0,0,0,,0,195,195,51,1,,,,
,,,,,,e7cc91fb7de369acb548daf2,66a626ef09d4e21e1a8894ec,6734e037acf809f2a2f552fd,2024-11-13_11h29.42.074,Tarea de género gramatical,2024.2.2,MacIntel,71.42857143,,,,,,,,,,,,,,,,,,,,,,,825.328,827.457,a,1,[],[],[],[],[],[],[],1.458,1,827.457,827.954,,,,,,507,FEM,AGR,150,moda,la,a,1.458,,827.954,827.955,-0.6275,-0.26875,0,0,0,,0,196,196,56,1,,,,
,,,,,,e7cc91fb7de369acb548daf2,66a626ef09d4e21e1a8894ec,6734e037acf809f2a2f552fd,2024-11-13_11h29.42.074,Tarea de género gramatical,2024.2.2,MacIntel,71.42857143,,,,,,,,,,,,,,,,,,,,,,,827.955,830.088,l,1,[],[],[],[],[],[],[],1.457,1,830.088,830.588,,,,,,726,MAS,AGR,150,ritmo,el,l,1.457,,830.588,830.588,-0.6275,-0.26875,0,0,0,,0,197,197,275,1,,,,
,,,,,,e7cc91fb7de369acb548daf2,66a626ef09d4e21e1a8894ec,6734e037acf809f2a2f552fd,2024-11-13_11h29.42.074,Tarea de género gramatical,2024.2.2,MacIntel,71.42857143,,,,,,,,,,,,,,,,,,,,,,,830.589,832.522,l,1,[],[],[],[],[],[],[],1.259,1,832.523,833.021,,,,,,875,MAS,DIS,150,chiste,la,l,1.259,,833.021,833.021,-0.6275,-0.26875,0,0,0,,0,198,198,424,1,,,,
,,,,,,e7cc91fb7de369acb548daf2,66a626ef09d4e21e1a8894ec,6734e037acf809f2a2f552fd,2024-11-13_11h29.42.074,Tarea de género gramatical,2024.2.2,MacIntel,71.42857143,,,,,,,,,,,,,,,,,,,,,,,833.022,834.173,a,1,[],[],[],[],[],[],[],0.482,1,834.174,834.672,,,,,,511,FEM,CON,150,ruta,,a,0.482,,834.672,834.673,-0.6275,-0.26875,0,0,0,,0,199,199,60,1,,,,
,,,,,,e7cc91fb7de369acb548daf2,66a626ef09d4e21e1a8894ec,6734e037acf809f2a2f552fd,2024-11-13_11h29.42.074,Tarea de género gramatical,2024.2.2,MacIntel,71.42857143,,,,,,,,,,,,,,,,,,,,,,,834.675,835.805,a,1,[],[],[],[],[],[],[],0.447,1,835.805,836.305,,,,,,890,FEM,DIS,150,patada,el,a,0.447,,836.306,836.307,-0.6275,-0.26875,0,0,0,,0,200,200,439,1,,,,
,,,,,,e7cc91fb7de369acb548daf2,66a626ef09d4e21e1a8894ec,6734e037acf809f2a2f552fd,2024-11-13_11h29.42.074,Tarea de género gramatical,2024.2.2,MacIntel,71.42857143,,,,,,,,,,,,,,,,,,,,,,,836.308,837.423,a,1,[],[],[],[],[],[],[],0.451,1,837.423,837.923,,,,,,710,FEM,DIS,150,barra,el,a,0.451,,837.923,837.923,-0.6275,-0.26875,0,0,0,,0,201,201,259,1,,,,
,,,,,,e7cc91fb7de369acb548daf2,66a626ef09d4e21e1a8894ec,6734e037acf809f2a2f552fd,2024-11-13_11h29.42.074,Tarea de género gramatical,2024.2.2,MacIntel,71.42857143,,,,,,,,,,,,,,,,,,,,,,,837.924,839.09,l,1,[],[],[],[],[],[],[],0.479,1,839.09,839.591,,,,,,750,MAS,AGR,150,túnel,el,l,0.479,,839.591,839.592,-0.6275,-0.26875,0,0,0,,0,202,202,299,1,,,,
,,,,,,e7cc91fb7de369acb548daf2,66a626ef09d4e21e1a8894ec,6734e037acf809f2a2f552fd,2024-11-13_11h29.42.074,Tarea de género gramatical,2024.2.2,MacIntel,71.42857143,,,,,,,,,,,,,,,,,,,,,,,839.593,842.241,,0,[],[],[],[],[],[],[],0.479,-1,842.242,842.744,,,,,,781,FEM,CON,150,cárcel,,a,,,842.744,842.744,-0.6275,-0.26875,0,0,0,,0,203,203,330,1,,,,
,,,,,,e7cc91fb7de369acb548daf2,66a626ef09d4e21e1a8894ec,6734e037acf809f2a2f552fd,2024-11-13_11h29.42.074,Tarea de género gramatical,2024.2.2,MacIntel,71.42857143,,,,,,,,,,,,,,,,,,,,,,,842.745,843.858,l,1,[],[],[],[],[],[],[],0.43,1,843.859,844.359,,,,,,684,MAS,AGR,150,héroe,el,l,0.43,,844.36,844.362,-0.6275,-0.26875,0,0,0,,0,204,204,233,1,,,,
,,,,,,e7cc91fb7de369acb548daf2,66a626ef09d4e21e1a8894ec,6734e037acf809f2a2f552fd,2024-11-13_11h29.42.074,Tarea de género gramatical,2024.2.2,MacIntel,71.42857143,,,,,,,,,,,,,,,,,,,,,,,844.362,845.998,l,0,[],[],[],[],[],[],[],0.976,0,845.999,846.495,,,,,,572,FEM,DIS,150,loca,el,a,0.976,,846.496,846.496,-0.6275,-0.26875,0,0,0,,0,205,205,121,1,,,,
,,,,,,e7cc91fb7de369acb548daf2,66a626ef09d4e21e1a8894ec,6734e037acf809f2a2f552fd,2024-11-13_11h29.42.074,Tarea de género gramatical,2024.2.2,MacIntel,71.42857143,,,,,,,,,,,,,,,,,,,,,,,846.497,849.146,,0,[],[],[],[],[],[],[],0.976,-1,849.146,849.644,,,,,,467,MAS,DIS,150,modo,la,l,,,849.645,849.645,-0.6275,-0.26875,0,0,0,,0,206,206,16,1,,,,
,,,,,,e7cc91fb7de369acb548daf2,66a626ef09d4e21e1a8894ec,6734e037acf809f2a2f552fd,2024-11-13_11h29.42.074,Tarea de género gramatical,2024.2.2,MacIntel,71.42857143,,,,,,,,,,,,,,,,,,,,,,,849.645,850.914,l,1,[],[],[],[],[],[],[],0.603,1,850.916,851.412,,,,,,696,MAS,AGR,150,humor,el,l,0.603,,851.412,851.412,-0.6275,-0.26875,0,0,0,,0,207,207,245,1,,,,
,,,,,,e7cc91fb7de369acb548daf2,66a626ef09d4e21e1a8894ec,6734e037acf809f2a2f552fd,2024-11-13_11h29.42.074,Tarea de género gramatical,2024.2.2,MacIntel,71.42857143,,,,,,,,,,,,,,,,,,,,,,,851.413,852.597,l,1,[],[],[],[],[],[],[],0.516,1,852.597,853.099,,,,,,480,MAS,AGR,150,cine,el,l,0.516,,853.099,853.099,-0.6275,-0.26875,0,0,0,,0,208,208,29,1,,,,
,,,,,,e7cc91fb7de369acb548daf2,66a626ef09d4e21e1a8894ec,6734e037acf809f2a2f552fd,2024-11-13_11h29.42.074,Tarea de género gramatical,2024.2.2,MacIntel,71.42857143,,,,,,,,,,,,,,,,,,,,,,,853.1,854.252,a,1,[],[],[],[],[],[],[],0.488,1,854.252,854.748,,,,,,589,FEM,CON,150,pipa,,a,0.488,,854.75,854.752,-0.6275,-0.26875,0,0,0,,0,209,209,138,1,,,,
,,,,,,e7cc91fb7de369acb548daf2,66a626ef09d4e21e1a8894ec,6734e037acf809f2a2f552fd,2024-11-13_11h29.42.074,Tarea de género gramatical,2024.2.2,MacIntel,71.42857143,,,,,,,,,,,,,,,,,,,,,,,854.753,856.118,a,1,[],[],[],[],[],[],[],0.683,1,856.118,856.614,,,,,,691,FEM,CON,150,pasta,,a,0.683,,856.614,856.614,-0.6275,-0.26875,0,0,0,,0,210,210,240,1,,,,
,,,,,,e7cc91fb7de369acb548daf2,66a626ef09d4e21e1a8894ec,6734e037acf809f2a2f552fd,2024-11-13_11h29.42.074,Tarea de género gramatical,2024.2.2,MacIntel,71.42857143,,,,,,,,,,,,,,,,,,,,,,,856.615,858.326,a,1,[],[],[],[],[],[],[],1.048,1,858.326,858.817,,,,,,517,FEM,CON,150,miel,,a,1.048,,858.817,858.817,-0.6275,-0.26875,0,0,0,,0,211,211,66,1,,,,
,,,,,,e7cc91fb7de369acb548daf2,66a626ef09d4e21e1a8894ec,6734e037acf809f2a2f552fd,2024-11-13_11h29.42.074,Tarea de género gramatical,2024.2.2,MacIntel,71.42857143,,,,,,,,,,,,,,,,,,,,,,,858.818,860.167,l,1,[],[],[],[],[],[],[],0.661,1,860.167,860.669,,,,,,706,MAS,CON,150,techo,,l,0.661,,860.669,860.669,-0.6275,-0.26875,0,0,0,,0,212,212,255,1,,,,
,,,,,,e7cc91fb7de369acb548daf2,66a626ef09d4e21e1a8894ec,6734e037acf809f2a2f552fd,2024-11-13_11h29.42.074,Tarea de género gramatical,2024.2.2,MacIntel,71.42857143,,,,,,,,,,,,,,,,,,,,,,,860.67,861.968,a,1,[],[],[],[],[],[],[],0.632,1,861.968,862.467,,,,,,741,FEM,AGR,150,aguja,la,a,0.632,,862.468,862.47,-0.6275,-0.26875,0,0,0,,0,213,213,290,1,,,,
,,,,,,e7cc91fb7de369acb548daf2,66a626ef09d4e21e1a8894ec,6734e037acf809f2a2f552fd,2024-11-13_11h29.42.074,Tarea de género gramatical,2024.2.2,MacIntel,71.42857143,,,,,,,,,,,,,,,,,,,,,,,862.472,864.604,l,1,[],[],[],[],[],[],[],1.467,1,864.605,865.108,,,,,,509,MAS,DIS,150,lobo,la,l,1.467,,865.108,865.109,-0.6275,-0.26875,0,0,0,,0,214,214,58,1,,,,
,,,,,,e7cc91fb7de369acb548daf2,66a626ef09d4e21e1a8894ec,6734e037acf809f2a2f552fd,2024-11-13_11h29.42.074,Tarea de género gramatical,2024.2.2,MacIntel,71.42857143,,,,,,,,,,,,,,,,,,,,,,,865.11,866.238,a,1,[],[],[],[],[],[],[],0.451,1,866.238,866.738,,,,,,571,FEM,CON,150,pila,,a,0.451,,866.738,866.739,-0.6275,-0.26875,0,0,0,,0,215,215,120,1,,,,
,,,,,,e7cc91fb7de369acb548daf2,66a626ef09d4e21e1a8894ec,6734e037acf809f2a2f552fd,2024-11-13_11h29.42.074,Tarea de género gramatical,2024.2.2,MacIntel,71.42857143,,,,,,,,,,,,,,,,,,,,,,,866.739,867.823,a,1,[],[],[],[],[],[],[],0.401,1,867.824,868.321,,,,,,811,FEM,CON,150,oferta,,a,0.401,,868.321,868.321,-0.6275,-0.26875,0,0,0,,0,216,216,360,1,,,,
,,,,,,e7cc91fb7de369acb548daf2,66a626ef09d4e21e1a8894ec,6734e037acf809f2a2f552fd,2024-11-13_11h29.42.074,Tarea de género gramatical,2024.2.2,MacIntel,71.42857143,,,,,,,,,,,,,,,,,,,,,,,868.324,869.639,l,1,[],[],[],[],[],[],[],0.636,1,869.639,870.139,,,,,,526,MAS,CON,150,lujo,,l,0.636,,870.139,870.14,-0.6275,-0.26875,0,0,0,,0,217,217,75,1,,,,
,,,,,,e7cc91fb7de369acb548daf2,66a626ef09d4e21e1a8894ec,6734e037acf809f2a2f552fd,2024-11-13_11h29.42.074,Tarea de género gramatical,2024.2.2,MacIntel,71.42857143,,,,,,,,,,,,,,,,,,,,,,,870.141,871.39,a,1,[],[],[],[],[],[],[],0.572,1,871.39,871.881,,,,,,475,FEM,CON,150,nave,,a,0.572,,871.881,871.883,-0.6275,-0.26875,0,0,0,,0,218,218,24,1,,,,
,,,,,,e7cc91fb7de369acb548daf2,66a626ef09d4e21e1a8894ec,6734e037acf809f2a2f552fd,2024-11-13_11h29.42.074,Tarea de género gramatical,2024.2.2,MacIntel,71.42857143,,,,,,,,,,,,,,,,,,,,,,,871.884,873.925,l,1,[],[],[],[],[],[],[],1.364,1,873.926,874.424,,,,,,598,MAS,CON,150,surf,,l,1.364,,874.425,874.425,-0.6275,-0.26875,0,0,0,,0,219,219,147,1,,,,
,,,,,,e7cc91fb7de369acb548daf2,66a626ef09d4e21e1a8894ec,6734e037acf809f2a2f552fd,2024-11-13_11h29.42.074,Tarea de género gramatical,2024.2.2,MacIntel,71.42857143,,,,,,,,,,,,,,,,,,,,,,,874.427,875.757,a,1,[],[],[],[],[],[],[],0.669,1,875.757,876.263,,,,,,590,FEM,DIS,150,mula,el,a,0.669,,876.263,876.263,-0.6275,-0.26875,0,0,0,,0,220,220,139,1,,,,
,,,,,,e7cc91fb7de369acb548daf2,66a626ef09d4e21e1a8894ec,6734e037acf809f2a2f552fd,2024-11-13_11h29.42.074,Tarea de género gramatical,2024.2.2,MacIntel,71.42857143,,,,,,,,,,,,,,,,,,,,,,,876.264,877.846,l,1,[],[],[],[],[],[],[],0.907,1,877.846,878.345,,,,,,737,MAS,DIS,150,plato,la,l,0.907,,878.346,878.346,-0.6275,-0.26875,0,0,0,,0,221,221,286,1,,,,
,,,,,,e7cc91fb7de369acb548daf2,66a626ef09d4e21e1a8894ec,6734e037acf809f2a2f552fd,2024-11-13_11h29.42.074,Tarea de género gramatical,2024.2.2,MacIntel,71.42857143,,,,,,,,,,,,,,,,,,,,,,,878.347,879.66,a,1,[],[],[],[],[],[],[],0.638,1,879.66,880.166,,,,,,579,FEM,AGR,150,rana,la,a,0.638,,880.167,880.168,-0.6275,-0.26875,0,0,0,,0,222,222,128,1,,,,
,,,,,,e7cc91fb7de369acb548daf2,66a626ef09d4e21e1a8894ec,6734e037acf809f2a2f552fd,2024-11-13_11h29.42.074,Tarea de género gramatical,2024.2.2,MacIntel,71.42857143,,,,,,,,,,,,,,,,,,,,,,,880.169,881.411,a,1,[],[],[],[],[],[],[],0.559,1,881.411,881.912,,,,,,657,FEM,AGR,150,playa,la,a,0.559,,881.912,881.912,-0.6275,-0.26875,0,0,0,,0,223,223,206,1,,,,
,,,,,,e7cc91fb7de369acb548daf2,66a626ef09d4e21e1a8894ec,6734e037acf809f2a2f552fd,2024-11-13_11h29.42.074,Tarea de género gramatical,2024.2.2,MacIntel,71.42857143,,,,,,,,,,,,,,,,,,,,,,,881.914,883.277,l,1,[],[],[],[],[],[],[],0.677,1,883.277,883.779,,,,,,576,MAS,AGR,150,lazo,el,l,0.677,,883.779,883.779,-0.6275,-0.26875,0,0,0,,0,224,224,125,1,,,,
,,,,,,e7cc91fb7de369acb548daf2,66a626ef09d4e21e1a8894ec,6734e037acf809f2a2f552fd,2024-11-13_11h29.42.074,Tarea de género gramatical,2024.2.2,MacIntel,71.42857143,,,,,,,,,,,,,,,,,,,,,,,883.781,885.047,a,1,[],[],[],[],[],[],[],0.599,1,885.047,885.551,,,,,,525,FEM,AGR,150,caza,la,a,0.599,,885.551,885.551,-0.6275,-0.26875,0,0,0,,0,225,225,74,1,,,,
,,,,,,e7cc91fb7de369acb548daf2,66a626ef09d4e21e1a8894ec,6734e037acf809f2a2f552fd,2024-11-13_11h29.42.074,Tarea de género gramatical,2024.2.2,MacIntel,71.42857143,,,,,,,,,,,,,,,,,,,,,,,885.552,887.084,l,1,[],[],[],[],[],[],[],0.857,1,887.084,887.582,,,,,,538,MAS,CON,150,pavo,,l,0.857,,887.582,887.582,-0.6275,-0.26875,0,0,0,,0,226,226,87,1,,,,
,,,,,,e7cc91fb7de369acb548daf2,66a626ef09d4e21e1a8894ec,6734e037acf809f2a2f552fd,2024-11-13_11h29.42.074,Tarea de género gramatical,2024.2.2,MacIntel,71.42857143,,,,,,,,,,,,,,,,,,,,,,,887.584,889.181,a,0,[],[],[],[],[],[],[],0.922,0,889.182,889.681,,,,,,587,MAS,DIS,150,coco,la,l,0.922,,889.682,889.683,-0.6275,-0.26875,0,0,0,,0,227,227,136,1,,,,
,,,,,,e7cc91fb7de369acb548daf2,66a626ef09d4e21e1a8894ec,6734e037acf809f2a2f552fd,2024-11-13_11h29.42.074,Tarea de género gramatical,2024.2.2,MacIntel,71.42857143,,,,,,,,,,,,,,,,,,,,,,,889.684,890.849,a,1,[],[],[],[],[],[],[],0.505,1,890.85,891.342,,,,,,667,FEM,CON,150,tarea,,a,0.505,,891.342,891.342,-0.6275,-0.26875,0,0,0,,0,228,228,216,1,,,,
,,,,,,e7cc91fb7de369acb548daf2,66a626ef09d4e21e1a8894ec,6734e037acf809f2a2f552fd,2024-11-13_11h29.42.074,Tarea de género gramatical,2024.2.2,MacIntel,71.42857143,,,,,,,,,,,,,,,,,,,,,,,891.342,892.751,l,1,[],[],[],[],[],[],[],0.738,1,892.751,893.249,,,,,,713,MAS,DIS,150,carro,la,l,0.738,,893.249,893.249,-0.6275,-0.26875,0,0,0,,0,229,229,262,1,,,,
,,,,,,e7cc91fb7de369acb548daf2,66a626ef09d4e21e1a8894ec,6734e037acf809f2a2f552fd,2024-11-13_11h29.42.074,Tarea de género gramatical,2024.2.2,MacIntel,71.42857143,,,,,,,,,,,,,,,,,,,,,,,893.25,894.602,a,1,[],[],[],[],[],[],[],0.671,1,894.602,895.1,,,,,,668,FEM,DIS,150,nieve,el,a,0.671,,895.101,895.101,-0.6275,-0.26875,0,0,0,,0,230,230,217,1,,,,
,,,,,,e7cc91fb7de369acb548daf2,66a626ef09d4e21e1a8894ec,6734e037acf809f2a2f552fd,2024-11-13_11h29.42.074,Tarea de género gramatical,2024.2.2,MacIntel,71.42857143,,,,,,,,,,,,,,,,,,,,,,,895.102,896.452,l,1,[],[],[],[],[],[],[],0.663,1,896.452,896.957,,,,,,610,MAS,CON,150,señor,,l,0.663,,896.958,896.96,-0.6275,-0.26875,0,0,0,,0,231,231,159,1,,,,
,,,,,,e7cc91fb7de369acb548daf2,66a626ef09d4e21e1a8894ec,6734e037acf809f2a2f552fd,2024-11-13_11h29.42.074,Tarea de género gramatical,2024.2.2,MacIntel,71.42857143,,,,,,,,,,,,,,,,,,,,,,,896.96,898.741,l,1,[],[],[],[],[],[],[],1.114,1,898.741,899.241,,,,,,700,MAS,CON,150,cerdo,,l,1.114,,899.241,899.241,-0.6275,-0.26875,0,0,0,,0,232,232,249,1,,,,
,,,,,,e7cc91fb7de369acb548daf2,66a626ef09d4e21e1a8894ec,6734e037acf809f2a2f552fd,2024-11-13_11h29.42.074,Tarea de género gramatical,2024.2.2,MacIntel,71.42857143,,,,,,,,,,,,,,,,,,,,,,,899.242,900.52,l,1,[],[],[],[],[],[],[],0.603,1,900.52,901.019,,,,,,562,MAS,CON,150,reto,,l,0.603,,901.019,901.019,-0.6275,-0.26875,0,0,0,,0,233,233,111,1,,,,
,,,,,,e7cc91fb7de369acb548daf2,66a626ef09d4e21e1a8894ec,6734e037acf809f2a2f552fd,2024-11-13_11h29.42.074,Tarea de género gramatical,2024.2.2,MacIntel,71.42857143,,,,,,,,,,,,,,,,,,,,,,,901.019,902.588,l,1,[],[],[],[],[],[],[],0.881,1,902.588,903.089,,,,,,473,MAS,DIS,150,rato,la,l,0.881,,903.09,903.09,-0.6275,-0.26875,0,0,0,,0,234,234,22,1,,,,
,,,,,,e7cc91fb7de369acb548daf2,66a626ef09d4e21e1a8894ec,6734e037acf809f2a2f552fd,2024-11-13_11h29.42.074,Tarea de género gramatical,2024.2.2,MacIntel,71.42857143,,,,,,,,,,,,,,,,,,,,,,,903.092,904.706,l,1,[],[],[],[],[],[],[],0.933,1,904.706,905.206,,,,,,707,MAS,DIS,150,pecho,la,l,0.933,,905.206,905.206,-0.6275,-0.26875,0,0,0,,0,235,235,256,1,,,,
,,,,,,e7cc91fb7de369acb548daf2,66a626ef09d4e21e1a8894ec,6734e037acf809f2a2f552fd,2024-11-13_11h29.42.074,Tarea de género gramatical,2024.2.2,MacIntel,71.42857143,,,,,,,,,,,,,,,,,,,,,,,905.208,906.79,l,1,[],[],[],[],[],[],[],0.896,1,906.79,907.28,,,,,,586,MAS,CON,150,vago,,l,0.896,,907.28,907.282,-0.6275,-0.26875,0,0,0,,0,236,236,135,1,,,,
,,,,,,e7cc91fb7de369acb548daf2,66a626ef09d4e21e1a8894ec,6734e037acf809f2a2f552fd,2024-11-13_11h29.42.074,Tarea de género gramatical,2024.2.2,MacIntel,71.42857143,,,,,,,,,,,,,,,,,,,,,,,907.283,908.731,l,1,[],[],[],[],[],[],[],0.779,1,908.732,909.225,,,,,,730,MAS,CON,150,salón,,l,0.779,,909.225,909.226,-0.6275,-0.26875,0,0,0,,0,237,237,279,1,,,,
,,,,,,e7cc91fb7de369acb548daf2,66a626ef09d4e21e1a8894ec,6734e037acf809f2a2f552fd,2024-11-13_11h29.42.074,Tarea de género gramatical,2024.2.2,MacIntel,71.42857143,,,,,,,,,,,,,,,,,,,,,,,909.228,910.642,a,1,[],[],[],[],[],[],[],0.745,1,910.642,911.142,,,,,,458,FEM,DIS,150,idea,el,a,0.745,,911.142,911.143,-0.6275,-0.26875,0,0,0,,0,238,238,7,1,,,,
,,,,,,e7cc91fb7de369acb548daf2,66a626ef09d4e21e1a8894ec,6734e037acf809f2a2f552fd,2024-11-13_11h29.42.074,Tarea de género gramatical,2024.2.2,MacIntel,71.42857143,,,,,,,,,,,,,,,,,,,,,,,911.143,912.56,a,1,[],[],[],[],[],[],[],0.735,1,912.56,913.064,,,,,,530,FEM,DIS,150,vaca,el,a,0.735,,913.064,913.064,-0.6275,-0.26875,0,0,0,,0,239,239,79,1,,,,
,,,,,,e7cc91fb7de369acb548daf2,66a626ef09d4e21e1a8894ec,6734e037acf809f2a2f552fd,2024-11-13_11h29.42.074,Tarea de género gramatical,2024.2.2,MacIntel,71.42857143,,,,,,,,,,,,,,,,,,,,,,,913.065,914.16,a,1,[],[],[],[],[],[],[],0.431,1,914.16,914.661,,,,,,891,FEM,AGR,150,medida,la,a,0.431,,914.662,914.664,-0.6275,-0.26875,0,0,0,,0,240,240,440,1,,,,
,,,,,,e7cc91fb7de369acb548daf2,66a626ef09d4e21e1a8894ec,6734e037acf809f2a2f552fd,2024-11-13_11h29.42.074,Tarea de género gramatical,2024.2.2,MacIntel,71.42857143,,,,,,,,,,,,,,,,,,,,,,,914.665,916.028,l,1,[],[],[],[],[],[],[],0.679,1,916.028,916.528,,,,,,774,MAS,AGR,150,cuarto,el,l,0.679,,916.528,916.528,-0.6275,-0.26875,0,0,0,,0,241,241,323,1,,,,
,,,,,,e7cc91fb7de369acb548daf2,66a626ef09d4e21e1a8894ec,6734e037acf809f2a2f552fd,2024-11-13_11h29.42.074,Tarea de género gramatical,2024.2.2,MacIntel,71.42857143,,,,,,,,,,,,,,,,,,,,,,,916.53,918.095,l,1,[],[],[],[],[],[],[],0.898,1,918.095,918.596,,,,,,653,MAS,DIS,150,novio,la,l,0.898,,918.596,918.596,-0.6275,-0.26875,0,0,0,,0,242,242,202,1,,,,
,,,,,,e7cc91fb7de369acb548daf2,66a626ef09d4e21e1a8894ec,6734e037acf809f2a2f552fd,2024-11-13_11h29.42.074,Tarea de género gramatical,2024.2.2,MacIntel,71.42857143,,,,,,,,,,,,,,,,,,,,,,,918.597,919.662,a,1,[],[],[],[],[],[],[],0.381,1,919.662,920.162,,,,,,759,FEM,AGR,150,esposa,la,a,0.381,,920.162,920.162,-0.6275,-0.26875,0,0,0,,0,243,243,308,1,,,,
,,,,,,e7cc91fb7de369acb548daf2,66a626ef09d4e21e1a8894ec,6734e037acf809f2a2f552fd,2024-11-13_11h29.42.074,Tarea de género gramatical,2024.2.2,MacIntel,71.42857143,,,,,,,,,,,,,,,,,,,,,,,920.163,921.73,l,0,[],[],[],[],[],[],[],0.886,0,921.731,922.229,,,,,,740,FEM,DIS,150,cabra,el,a,0.886,,922.229,922.229,-0.6275,-0.26875,0,0,0,,0,244,244,289,1,,,,
,,,,,,e7cc91fb7de369acb548daf2,66a626ef09d4e21e1a8894ec,6734e037acf809f2a2f552fd,2024-11-13_11h29.42.074,Tarea de género gramatical,2024.2.2,MacIntel,71.42857143,,,,,,,,,,,,,,,,,,,,,,,922.232,924.132,l,1,[],[],[],[],[],[],[],1.224,1,924.132,924.623,,,,,,868,MAS,CON,150,pájaro,,l,1.224,,924.624,924.625,-0.6275,-0.26875,0,0,0,,0,245,245,417,1,,,,
,,,,,,e7cc91fb7de369acb548daf2,66a626ef09d4e21e1a8894ec,6734e037acf809f2a2f552fd,2024-11-13_11h29.42.074,Tarea de género gramatical,2024.2.2,MacIntel,71.42857143,,,,,,,,,,,,,,,,,,,,,,,924.626,925.714,l,1,[],[],[],[],[],[],[],0.425,1,925.714,926.214,,,,,,808,MAS,CON,150,motivo,,l,0.425,,926.214,926.214,-0.6275,-0.26875,0,0,0,,0,246,246,357,1,,,,
,,,,,,e7cc91fb7de369acb548daf2,66a626ef09d4e21e1a8894ec,6734e037acf809f2a2f552fd,2024-11-13_11h29.42.074,Tarea de género gramatical,2024.2.2,MacIntel,71.42857143,,,,,,,,,,,,,,,,,,,,,,,926.215,927.285,a,1,[],[],[],[],[],[],[],0.381,1,927.285,927.784,,,,,,698,FEM,DIS,150,letra,el,a,0.381,,927.784,927.784,-0.6275,-0.26875,0,0,0,,0,247,247,247,1,,,,
,,,,,,e7cc91fb7de369acb548daf2,66a626ef09d4e21e1a8894ec,6734e037acf809f2a2f552fd,2024-11-13_11h29.42.074,Tarea de género gramatical,2024.2.2,MacIntel,71.42857143,,,,,,,,,,,,,,,,,,,,,,,927.787,929.834,a,1,[],[],[],[],[],[],[],1.383,1,929.835,930.337,,,,,,788,FEM,DIS,150,abuela,el,a,1.383,,930.337,930.337,-0.6275,-0.26875,0,0,0,,0,248,248,337,1,,,,
,,,,,,e7cc91fb7de369acb548daf2,66a626ef09d4e21e1a8894ec,6734e037acf809f2a2f552fd,2024-11-13_11h29.42.074,Tarea de género gramatical,2024.2.2,MacIntel,71.42857143,,,,,,,,,,,,,,,,,,,,,,,930.339,931.89,a,1,[],[],[],[],[],[],[],0.894,1,931.89,932.393,,,,,,847,FEM,CON,150,cuerda,,a,0.894,,932.393,932.395,-0.6275,-0.26875,0,0,0,,0,249,249,396,1,,,,
,,,,,,e7cc91fb7de369acb548daf2,66a626ef09d4e21e1a8894ec,6734e037acf809f2a2f552fd,2024-11-13_11h29.42.074,Tarea de género gramatical,2024.2.2,MacIntel,71.42857143,,,,,,,,,,,,,,,,,,,,,,,932.396,934.187,l,1,[],[],[],[],[],[],[],1.128,1,934.187,934.691,,,,,,887,MAS,DIS,150,hombro,la,l,1.128,,934.692,934.692,-0.6275,-0.26875,0,0,0,,0,250,250,436,1,,,,
,,,,,,e7cc91fb7de369acb548daf2,66a626ef09d4e21e1a8894ec,6734e037acf809f2a2f552fd,2024-11-13_11h29.42.074,Tarea de género gramatical,2024.2.2,MacIntel,71.42857143,,,,,,,,,,,,,,,,,,,,,,,934.693,935.97,a,1,[],[],[],[],[],[],[],0.595,1,935.97,936.47,,,,,,493,FEM,CON,150,nena,,a,0.595,,936.47,936.47,-0.6275,-0.26875,0,0,0,,0,251,251,42,1,,,,
,,,,,,e7cc91fb7de369acb548daf2,66a626ef09d4e21e1a8894ec,6734e037acf809f2a2f552fd,2024-11-13_11h29.42.074,Tarea de género gramatical,2024.2.2,MacIntel,71.42857143,,,,,,,,,,,,,,,,,,,,,,,936.471,938.326,l,1,[],[],[],[],[],[],[],1.188,1,938.326,938.823,,,,,,556,MAS,CON,150,test,,l,1.188,,938.823,938.823,-0.6275,-0.26875,0,0,0,,0,252,252,105,1,,,,
,,,,,,e7cc91fb7de369acb548daf2,66a626ef09d4e21e1a8894ec,6734e037acf809f2a2f552fd,2024-11-13_11h29.42.074,Tarea de género gramatical,2024.2.2,MacIntel,71.42857143,,,,,,,,,,,,,,,,,,,,,,,938.824,940.03,l,1,[],[],[],[],[],[],[],0.537,1,940.03,940.522,,,,,,796,MAS,CON,150,juicio,,l,0.537,,940.522,940.522,-0.6275,-0.26875,0,0,0,,0,253,253,345,1,,,,
,,,,,,e7cc91fb7de369acb548daf2,66a626ef09d4e21e1a8894ec,6734e037acf809f2a2f552fd,2024-11-13_11h29.42.074,Tarea de género gramatical,2024.2.2,MacIntel,71.42857143,,,,,,,,,,,,,,,,,,,,,,,940.523,942.557,l,1,[],[],[],[],[],[],[],1.367,1,942.557,943.057,,,,,,593,MAS,DIS,150,faro,la,l,1.367,,943.059,943.061,-0.6275,-0.26875,0,0,0,,0,254,254,142,1,,,,
,,,,,,e7cc91fb7de369acb548daf2,66a626ef09d4e21e1a8894ec,6734e037acf809f2a2f552fd,2024-11-13_11h29.42.074,Tarea de género gramatical,2024.2.2,MacIntel,71.42857143,,,,,,,,,,,,,,,,,,,,,,,943.062,944.975,a,1,[],[],[],[],[],[],[],1.239,1,944.975,945.475,,,,,,680,FEM,DIS,150,regla,el,a,1.239,,945.475,945.476,-0.6275,-0.26875,0,0,0,,0,255,255,229,1,,,,
,,,,,,e7cc91fb7de369acb548daf2,66a626ef09d4e21e1a8894ec,6734e037acf809f2a2f552fd,2024-11-13_11h29.42.074,Tarea de género gramatical,2024.2.2,MacIntel,71.42857143,,,,,,,,,,,,,,,,,,,,,,,945.477,947.609,a,1,[],[],[],[],[],[],[],1.466,1,947.61,948.108,,,,,,512,FEM,DIS,150,sopa,el,a,1.466,,948.109,948.109,-0.6275,-0.26875,0,0,0,,0,256,256,61,1,,,,
,,,,,,e7cc91fb7de369acb548daf2,66a626ef09d4e21e1a8894ec,6734e037acf809f2a2f552fd,2024-11-13_11h29.42.074,Tarea de género gramatical,2024.2.2,MacIntel,71.42857143,,,,,,,,,,,,,,,,,,,,,,,948.111,949.342,a,1,[],[],[],[],[],[],[],0.555,1,949.343,949.843,,,,,,853,FEM,CON,150,paliza,,a,0.555,,949.843,949.844,-0.6275,-0.26875,0,0,0,,0,257,257,402,1,,,,
,,,,,,e7cc91fb7de369acb548daf2,66a626ef09d4e21e1a8894ec,6734e037acf809f2a2f552fd,2024-11-13_11h29.42.074,Tarea de género gramatical,2024.2.2,MacIntel,71.42857143,,,,,,,,,,,,,,,,,,,,,,,949.845,950.978,a,1,[],[],[],[],[],[],[],0.451,1,950.978,951.477,,,,,,794,FEM,DIS,150,pareja,el,a,0.451,,951.479,951.481,-0.6275,-0.26875,0,0,0,,0,258,258,343,1,,,,
,,,,,,e7cc91fb7de369acb548daf2,66a626ef09d4e21e1a8894ec,6734e037acf809f2a2f552fd,2024-11-13_11h29.42.074,Tarea de género gramatical,2024.2.2,MacIntel,71.42857143,,,,,,,,,,,,,,,,,,,,,,,951.482,952.61,l,1,[],[],[],[],[],[],[],0.454,1,952.611,953.111,,,,,,558,MAS,AGR,150,hilo,el,l,0.454,,953.111,953.112,-0.6275,-0.26875,0,0,0,,0,259,259,107,1,,,,
,,,,,,e7cc91fb7de369acb548daf2,66a626ef09d4e21e1a8894ec,6734e037acf809f2a2f552fd,2024-11-13_11h29.42.074,Tarea de género gramatical,2024.2.2,MacIntel,71.42857143,,,,,,,,,,,,,,,,,,,,,,,953.114,954.73,l,1,[],[],[],[],[],[],[],0.929,1,954.73,955.229,,,,,,599,MAS,DIS,150,nudo,la,l,0.929,,955.23,955.23,-0.6275,-0.26875,0,0,0,,0,260,260,148,1,,,,
,,,,,,e7cc91fb7de369acb548daf2,66a626ef09d4e21e1a8894ec,6734e037acf809f2a2f552fd,2024-11-13_11h29.42.074,Tarea de género gramatical,2024.2.2,MacIntel,71.42857143,,,,,,,,,,,,,,,,,,,,,,,955.232,956.88,a,1,[],[],[],[],[],[],[],0.97,1,956.88,957.381,,,,,,464,FEM,DIS,150,cara,el,a,0.97,,957.381,957.381,-0.6275,-0.26875,0,0,0,,0,261,261,13,1,,,,
,,,,,,e7cc91fb7de369acb548daf2,66a626ef09d4e21e1a8894ec,6734e037acf809f2a2f552fd,2024-11-13_11h29.42.074,Tarea de género gramatical,2024.2.2,MacIntel,71.42857143,,,,,,,,,,,,,,,,,,,,,,,957.383,958.897,a,1,[],[],[],[],[],[],[],0.838,1,958.897,959.397,,,,,,643,FEM,CON,150,bolsa,,a,0.838,,959.397,959.397,-0.6275,-0.26875,0,0,0,,0,262,262,192,1,,,,
