counterbalancing_condition,consent_prescreening.block_1/declare_consent,consent_prescreening.block_1/age_years,consent_prescreening.block_1/gender,consent_prescreening.block_1/language_disorder,consent_prescreening.block_1/first_language,PROLIFIC_PID,STUDY_ID,SESSION_ID,date,expName,psychopyVersion,OS,frameRate,check_prescreening_answers.started,check_prescreening_answers.stopped,Instructions.started,Instructions.stopped,instr_done_keyboard.keys,instr_done_keyboard.rt,instr_done_keyboard.duration,instr_done_touch.x,instr_done_touch.y,instr_done_touch.leftButton,instr_done_touch.midButton,instr_done_touch.rightButton,instruction_pages.thisRepN,instruction_pages.thisTrialN,instruction_pages.thisN,instruction_pages.thisIndex,instruction_pages.ran,pageN,phase,instruct_text,has_image,instruct_image,presentTrial.started,presentTrial.stopped,response.keys,response.corr,touch_resp.x,touch_resp.y,touch_resp.leftButton,touch_resp.midButton,touch_resp.rightButton,touch_resp.time,touch_resp.clicked_name,rt,corr,feedback.started,feedback.stopped,practice_trials.thisRepN,practice_trials.thisTrialN,practice_trials.thisN,practice_trials.thisIndex,practice_trials.ran,TrialID,StimulusType,Condition,PrimeDuration,Prime,Flanker,corrAns,response.rt,response.duration,Break.started,Break.stopped,break_done_touch.x,break_done_touch.y,break_done_touch.leftButton,break_done_touch.midButton,break_done_touch.rightButton,break_done_keyboard.keys,experiment_trials.thisRepN,experiment_trials.thisTrialN,experiment_trials.thisN,experiment_trials.thisIndex,experiment_trials.ran,break_done_keyboard.rt,break_done_keyboard.duration,End.started,End.stopped
1,"[""over_18"",""comfortable"",""read_info"",""consent_given""]",34,M,"[""none""]","[""spanish""]",ed84ce718407e4d1d2a14cc2,66a626ef09d4e21e1a8894ec,67361081a5f97388d5ff123f,2024-11-14_09h00.47.317,Tarea de género gramatical,2024.2.2,MacIntel,100,,,,,,,,,,,,,,,,,,,,,,,,,,,,,,,,,,,,,,,,,,,,,,,,,,,,,,,,,,,,,,,,,,,,
,,,,,,ed84ce718407e4d1d2a14cc2,66a626ef09d4e21e1a8894ec,67361081a5f97388d5ff123f,2024-11-14_09h00.47.317,Tarea de género gramatical,2024.2.2,MacIntel,100,35.3726,35.3727,,,,,,,,,,,,,,,,,,,,,,,,,,,,,,,,,,,,,,,,,,,,,,,,,,,,,,,,,,,,,,,,,,
,,,,,,ed84ce718407e4d1d2a14cc2,66a626ef09d4e21e1a8894ec,67361081a5f97388d5ff123f,2024-11-14_09h00.47.317,Tarea de género gramatical,2024.2.2,MacIntel,100,,,35.3843,105.2928,space,69.8895,,0.449551505,0.086899595,0,0,0,0,0,0,0,1,1,instructions,"INSTRUCCIONES
Va a realizar una prueba de selección gramatical. Desde el comienzo de la prueba mire siempre al centro de la pantalla. Al cabo de un momento, aparecerán palabras. La tarea consiste en determinar si la palabra del centro (siempre será un sustantivo), pertenece al género masculino o femenino.

Pulse la tecla ESPACIO o toque el botón de abajo para continuar.",0,keyboardresponseMF.png,,,,,,,,,,,,,,,,,,,,,,,,,,,,,,,,,,,,,,,,,,,,,,
,,,,,,ed84ce718407e4d1d2a14cc2,66a626ef09d4e21e1a8894ec,67361081a5f97388d5ff123f,2024-11-14_09h00.47.317,Tarea de género gramatical,2024.2.2,MacIntel,100,,,105.2948,358.6342,space,253.2986,,0.474537037,0.0669307,0,0,0,0,1,1,1,1,2,instructions,"Si su dispositivo tiene teclado, pulse la tecla ""A"" para las palabras en masculino (por ejemplo: ""arroz"") y la tecla ""L"" para las palabras en femenino (por ejemplo: ""mano"").
Pulse la tecla ESPACIO o toque el botón de abajo para continuar.",1,keyboardresponseMF.png,,,,,,,,,,,,,,,,,,,,,,,,,,,,,,,,,,,,,,,,,,,,,,
,,,,,,ed84ce718407e4d1d2a14cc2,66a626ef09d4e21e1a8894ec,67361081a5f97388d5ff123f,2024-11-14_09h00.47.317,Tarea de género gramatical,2024.2.2,MacIntel,100,,,358.6375,365.6348,space,6.9605,,0.474537037,0.0669307,0,0,0,0,2,2,2,1,3,instructions,"Si utiliza un dispositivo sólo táctil, colóquelo en horizontal y utilice los botones de la pantalla. No utilice el ratón.
Pulse la tecla ESPACIO o toque el botón de abajo para continuar.",2,touchresponseMF.png,,,,,,,,,,,,,,,,,,,,,,,,,,,,,,,,,,,,,,,,,,,,,,
,,,,,,ed84ce718407e4d1d2a14cc2,66a626ef09d4e21e1a8894ec,67361081a5f97388d5ff123f,2024-11-14_09h00.47.317,Tarea de género gramatical,2024.2.2,MacIntel,100,,,365.6385,560.5449,space,194.8918,,-0.867256221,0.233897569,0,0,0,0,3,3,3,1,4,instructions,"Es muy importante que responda con la mayor rapidez y precisión posibles, ya que cada cadena de letras sólo estará en pantalla durante un instante. Si no responde en ese tiempo, aparecerá el mensaje ""Muy lento"" y el experimento pasará a la siguiente palabra. Los primeros 15 intentos serán de práctica y habrá dos descansos durante la prueba.
Pulse la tecla ESPACIO o toque el botón de abajo para iniciar la parte de práctica.",0,keyboardresponseMF.png,,,,,,,,,,,,,,,,,,,,,,,,,,,,,,,,,,,,,,,,,,,,,,
,,,,,,ed84ce718407e4d1d2a14cc2,66a626ef09d4e21e1a8894ec,67361081a5f97388d5ff123f,2024-11-14_09h00.47.317,Tarea de género gramatical,2024.2.2,MacIntel,100,,,,,,,,,,,,,,,,,,,,,,,560.5622,563.2148,,0,[],[],[],[],[],[],[],,-1,563.2153,563.7148,0,0,0,14,1,2015,MAS,DIS,150,robot,la,l,,,,,,,,,,,,,,,,,,,
,,,,,,ed84ce718407e4d1d2a14cc2,66a626ef09d4e21e1a8894ec,67361081a5f97388d5ff123f,2024-11-14_09h00.47.317,Tarea de género gramatical,2024.2.2,MacIntel,100,,,,,,,,,,,,,,,,,,,,,,,563.7162,566.3639,,0,[],[],[],[],[],[],[],,-1,566.364,566.8639,0,1,1,8,1,2009,MAS,DIS,150,puerto,la,l,,,,,,,,,,,,,,,,,,,
,,,,,,ed84ce718407e4d1d2a14cc2,66a626ef09d4e21e1a8894ec,67361081a5f97388d5ff123f,2024-11-14_09h00.47.317,Tarea de género gramatical,2024.2.2,MacIntel,100,,,,,,,,,,,,,,,,,,,,,,,566.865,568.2046,l,1,[],[],[],[],[],[],[],0.6685,1,568.222,568.7037,0,2,2,3,1,2004,FEM,AGR,150,venta,la,a,0.6685,,,,,,,,,,,,,,,,,,
,,,,,,ed84ce718407e4d1d2a14cc2,66a626ef09d4e21e1a8894ec,67361081a5f97388d5ff123f,2024-11-14_09h00.47.317,Tarea de género gramatical,2024.2.2,MacIntel,100,,,,,,,,,,,,,,,,,,,,,,,568.7045,569.9446,a,0,[],[],[],[],[],[],[],0.5769,0,569.9466,570.4452,0,3,3,5,1,2006,FEM,DIS,150,serie,el,a,0.5769,,,,,,,,,,,,,,,,,,
,,,,,,ed84ce718407e4d1d2a14cc2,66a626ef09d4e21e1a8894ec,67361081a5f97388d5ff123f,2024-11-14_09h00.47.317,Tarea de género gramatical,2024.2.2,MacIntel,100,,,,,,,,,,,,,,,,,,,,,,,570.4479,571.5654,l,1,[],[],[],[],[],[],[],0.4512,1,571.5677,572.0652,0,4,4,6,1,2007,FEM,AGR,150,navaja,la,a,0.4512,,,,,,,,,,,,,,,,,,
,,,,,,ed84ce718407e4d1d2a14cc2,66a626ef09d4e21e1a8894ec,67361081a5f97388d5ff123f,2024-11-14_09h00.47.317,Tarea de género gramatical,2024.2.2,MacIntel,100,,,,,,,,,,,,,,,,,,,,,,,572.0678,573.2337,l,0,[],[],[],[],[],[],[],0.5027,0,573.2347,573.7346,0,5,5,10,1,2011,MAS,CON,150,canal,,l,0.5027,,,,,,,,,,,,,,,,,,
,,,,,,ed84ce718407e4d1d2a14cc2,66a626ef09d4e21e1a8894ec,67361081a5f97388d5ff123f,2024-11-14_09h00.47.317,Tarea de género gramatical,2024.2.2,MacIntel,100,,,,,,,,,,,,,,,,,,,,,,,573.7356,575.1848,l,1,[],[],[],[],[],[],[],0.7803,1,575.1858,575.6837,0,6,6,7,1,2008,FEM,CON,150,siesta,,a,0.7803,,,,,,,,,,,,,,,,,,
,,,,,,ed84ce718407e4d1d2a14cc2,66a626ef09d4e21e1a8894ec,67361081a5f97388d5ff123f,2024-11-14_09h00.47.317,Tarea de género gramatical,2024.2.2,MacIntel,100,,,,,,,,,,,,,,,,,,,,,,,575.6847,576.9045,a,1,[],[],[],[],[],[],[],0.5679,1,576.9045,577.4042,0,7,7,9,1,2010,MAS,AGR,150,vecino,el,l,0.5679,,,,,,,,,,,,,,,,,,
,,,,,,ed84ce718407e4d1d2a14cc2,66a626ef09d4e21e1a8894ec,67361081a5f97388d5ff123f,2024-11-14_09h00.47.317,Tarea de género gramatical,2024.2.2,MacIntel,100,,,,,,,,,,,,,,,,,,,,,,,577.4069,578.5354,l,1,[],[],[],[],[],[],[],0.4612,1,578.5358,579.0352,0,8,8,0,1,2001,FEM,AGR,150,nuca,la,a,0.4612,,,,,,,,,,,,,,,,,,
,,,,,,ed84ce718407e4d1d2a14cc2,66a626ef09d4e21e1a8894ec,67361081a5f97388d5ff123f,2024-11-14_09h00.47.317,Tarea de género gramatical,2024.2.2,MacIntel,100,,,,,,,,,,,,,,,,,,,,,,,579.0378,580.2649,a,0,[],[],[],[],[],[],[],0.5642,0,580.266,580.7652,0,9,9,1,1,2002,FEM,CON,150,pala,,a,0.5642,,,,,,,,,,,,,,,,,,
,,,,,,ed84ce718407e4d1d2a14cc2,66a626ef09d4e21e1a8894ec,67361081a5f97388d5ff123f,2024-11-14_09h00.47.317,Tarea de género gramatical,2024.2.2,MacIntel,100,,,,,,,,,,,,,,,,,,,,,,,580.768,581.9146,l,1,[],[],[],[],[],[],[],0.4822,1,581.9157,582.4153,0,10,10,4,1,2005,FEM,CON,150,placa,,a,0.4822,,,,,,,,,,,,,,,,,,
,,,,,,ed84ce718407e4d1d2a14cc2,66a626ef09d4e21e1a8894ec,67361081a5f97388d5ff123f,2024-11-14_09h00.47.317,Tarea de género gramatical,2024.2.2,MacIntel,100,,,,,,,,,,,,,,,,,,,,,,,582.4183,583.5354,l,0,[],[],[],[],[],[],[],0.4513,0,583.5379,584.0349,0,11,11,11,1,2012,MAS,DIS,150,clima,la,l,0.4513,,,,,,,,,,,,,,,,,,
,,,,,,ed84ce718407e4d1d2a14cc2,66a626ef09d4e21e1a8894ec,67361081a5f97388d5ff123f,2024-11-14_09h00.47.317,Tarea de género gramatical,2024.2.2,MacIntel,100,,,,,,,,,,,,,,,,,,,,,,,584.0378,585.1948,a,1,[],[],[],[],[],[],[],0.4938,1,585.1955,585.6949,0,12,12,13,1,2014,MAS,CON,150,siglo,,l,0.4938,,,,,,,,,,,,,,,,,,
,,,,,,ed84ce718407e4d1d2a14cc2,66a626ef09d4e21e1a8894ec,67361081a5f97388d5ff123f,2024-11-14_09h00.47.317,Tarea de género gramatical,2024.2.2,MacIntel,100,,,,,,,,,,,,,,,,,,,,,,,585.6973,587.0049,l,1,[],[],[],[],[],[],[],0.6453,1,587.005,587.5046,0,13,13,2,1,2003,FEM,DIS,150,daga,el,a,0.6453,,,,,,,,,,,,,,,,,,
,,,,,,ed84ce718407e4d1d2a14cc2,66a626ef09d4e21e1a8894ec,67361081a5f97388d5ff123f,2024-11-14_09h00.47.317,Tarea de género gramatical,2024.2.2,MacIntel,100,,,,,,,,,,,,,,,,,,,,,,,587.5069,588.8365,l,0,[],[],[],[],[],[],[],0.6673,0,588.838,589.3353,0,14,14,12,1,2013,MAS,AGR,150,acero,el,l,0.6673,,,,,,,,,,,,,,,,,,
,,,,,,ed84ce718407e4d1d2a14cc2,66a626ef09d4e21e1a8894ec,67361081a5f97388d5ff123f,2024-11-14_09h00.47.317,Tarea de género gramatical,2024.2.2,MacIntel,100,,,594.809,596.7745,space,1.9578,,-0.867256221,0.233897569,0,0,0,,,,,,,,,,,596.8051,598.1549,a,0,[],[],[],[],[],[],[],0.6877,0,598.1551,598.6551,,,,,,865,FEM,CON,150,cabina,,a,0.6877,,598.6565,598.6615,-0.867256221,0.233897569,0,0,0,,0,0,0,414,1,,,,
,,,,,,ed84ce718407e4d1d2a14cc2,66a626ef09d4e21e1a8894ec,67361081a5f97388d5ff123f,2024-11-14_09h00.47.317,Tarea de género gramatical,2024.2.2,MacIntel,100,,,,,,,,,,,,,,,,,,,,,,,598.6628,599.8058,l,1,[],[],[],[],[],[],[],0.482,1,599.8079,600.3053,,,,,,607,FEM,CON,150,madre,,a,0.482,,600.3056,600.3061,-0.867256221,0.233897569,0,0,0,,0,1,1,156,1,,,,
,,,,,,ed84ce718407e4d1d2a14cc2,66a626ef09d4e21e1a8894ec,67361081a5f97388d5ff123f,2024-11-14_09h00.47.317,Tarea de género gramatical,2024.2.2,MacIntel,100,,,,,,,,,,,,,,,,,,,,,,,600.3092,601.5049,l,0,[],[],[],[],[],[],[],0.5327,0,601.5057,602.0043,,,,,,617,MAS,DIS,150,juego,la,l,0.5327,,602.007,602.0084,-0.867256221,0.233897569,0,0,0,,0,2,2,166,1,,,,
,,,,,,ed84ce718407e4d1d2a14cc2,66a626ef09d4e21e1a8894ec,67361081a5f97388d5ff123f,2024-11-14_09h00.47.317,Tarea de género gramatical,2024.2.2,MacIntel,100,,,,,,,,,,,,,,,,,,,,,,,602.0093,603.2254,a,0,[],[],[],[],[],[],[],0.5543,0,603.2259,603.7248,,,,,,631,FEM,CON,150,tarde,,a,0.5543,,603.7249,603.7252,-0.867256221,0.233897569,0,0,0,,0,3,3,180,1,,,,
,,,,,,ed84ce718407e4d1d2a14cc2,66a626ef09d4e21e1a8894ec,67361081a5f97388d5ff123f,2024-11-14_09h00.47.317,Tarea de género gramatical,2024.2.2,MacIntel,100,,,,,,,,,,,,,,,,,,,,,,,603.7275,604.9651,a,1,[],[],[],[],[],[],[],0.5716,1,604.966,605.4647,,,,,,798,MAS,AGR,150,anillo,el,l,0.5716,,605.4648,605.4649,-0.867256221,0.233897569,0,0,0,,0,4,4,347,1,,,,
,,,,,,ed84ce718407e4d1d2a14cc2,66a626ef09d4e21e1a8894ec,67361081a5f97388d5ff123f,2024-11-14_09h00.47.317,Tarea de género gramatical,2024.2.2,MacIntel,100,,,,,,,,,,,,,,,,,,,,,,,605.4659,606.665,a,0,[],[],[],[],[],[],[],0.533,0,606.6658,607.1654,,,,,,860,FEM,DIS,150,piedad,el,a,0.533,,607.1656,607.166,-0.867256221,0.233897569,0,0,0,,0,5,5,409,1,,,,
,,,,,,ed84ce718407e4d1d2a14cc2,66a626ef09d4e21e1a8894ec,67361081a5f97388d5ff123f,2024-11-14_09h00.47.317,Tarea de género gramatical,2024.2.2,MacIntel,100,,,,,,,,,,,,,,,,,,,,,,,607.1685,608.6547,l,0,[],[],[],[],[],[],[],0.8206,0,608.6548,609.1548,,,,,,653,MAS,DIS,150,novio,la,l,0.8206,,609.1559,609.1565,-0.867256221,0.233897569,0,0,0,,0,6,6,202,1,,,,
,,,,,,ed84ce718407e4d1d2a14cc2,66a626ef09d4e21e1a8894ec,67361081a5f97388d5ff123f,2024-11-14_09h00.47.317,Tarea de género gramatical,2024.2.2,MacIntel,100,,,,,,,,,,,,,,,,,,,,,,,609.1571,610.3255,a,0,[],[],[],[],[],[],[],0.4998,0,610.3258,610.8255,,,,,,651,FEM,AGR,150,leche,la,a,0.4998,,610.8257,610.826,-0.867256221,0.233897569,0,0,0,,0,7,7,200,1,,,,
,,,,,,ed84ce718407e4d1d2a14cc2,66a626ef09d4e21e1a8894ec,67361081a5f97388d5ff123f,2024-11-14_09h00.47.317,Tarea de género gramatical,2024.2.2,MacIntel,100,,,,,,,,,,,,,,,,,,,,,,,610.8284,612.014,a,0,[],[],[],[],[],[],[],0.5214,0,612.0141,612.5155,,,,,,752,FEM,DIS,150,cabeza,el,a,0.5214,,612.5157,612.516,-0.867256221,0.233897569,0,0,0,,0,8,8,301,1,,,,
,,,,,,ed84ce718407e4d1d2a14cc2,66a626ef09d4e21e1a8894ec,67361081a5f97388d5ff123f,2024-11-14_09h00.47.317,Tarea de género gramatical,2024.2.2,MacIntel,100,,,,,,,,,,,,,,,,,,,,,,,612.5181,613.695,a,1,[],[],[],[],[],[],[],0.5119,1,613.6959,614.1953,,,,,,772,MAS,CON,150,minuto,,l,0.5119,,614.1955,614.1958,-0.867256221,0.233897569,0,0,0,,0,9,9,321,1,,,,
,,,,,,ed84ce718407e4d1d2a14cc2,66a626ef09d4e21e1a8894ec,67361081a5f97388d5ff123f,2024-11-14_09h00.47.317,Tarea de género gramatical,2024.2.2,MacIntel,100,,,,,,,,,,,,,,,,,,,,,,,614.198,615.3352,a,1,[],[],[],[],[],[],[],0.4711,1,615.3353,615.8353,,,,,,652,MAS,CON,150,honor,,l,0.4711,,615.8355,615.836,-0.867256221,0.233897569,0,0,0,,0,10,10,201,1,,,,
,,,,,,ed84ce718407e4d1d2a14cc2,66a626ef09d4e21e1a8894ec,67361081a5f97388d5ff123f,2024-11-14_09h00.47.317,Tarea de género gramatical,2024.2.2,MacIntel,100,,,,,,,,,,,,,,,,,,,,,,,615.8383,617.155,a,0,[],[],[],[],[],[],[],0.6506,0,617.156,617.6554,,,,,,656,FEM,DIS,150,época,el,a,0.6506,,617.6578,617.6592,-0.867256221,0.233897569,0,0,0,,0,11,11,205,1,,,,
,,,,,,ed84ce718407e4d1d2a14cc2,66a626ef09d4e21e1a8894ec,67361081a5f97388d5ff123f,2024-11-14_09h00.47.317,Tarea de género gramatical,2024.2.2,MacIntel,100,,,,,,,,,,,,,,,,,,,,,,,617.6601,618.815,a,1,[],[],[],[],[],[],[],0.4916,1,618.8158,619.3156,,,,,,844,MAS,CON,150,examen,,l,0.4916,,619.3158,619.3159,-0.867256221,0.233897569,0,0,0,,0,12,12,393,1,,,,
,,,,,,ed84ce718407e4d1d2a14cc2,66a626ef09d4e21e1a8894ec,67361081a5f97388d5ff123f,2024-11-14_09h00.47.317,Tarea de género gramatical,2024.2.2,MacIntel,100,,,,,,,,,,,,,,,,,,,,,,,619.3182,620.6051,l,0,[],[],[],[],[],[],[],0.6249,0,620.6061,621.1054,,,,,,730,MAS,CON,150,salón,,l,0.6249,,621.1056,621.1058,-0.867256221,0.233897569,0,0,0,,0,13,13,279,1,,,,
,,,,,,ed84ce718407e4d1d2a14cc2,66a626ef09d4e21e1a8894ec,67361081a5f97388d5ff123f,2024-11-14_09h00.47.317,Tarea de género gramatical,2024.2.2,MacIntel,100,,,,,,,,,,,,,,,,,,,,,,,621.1079,622.225,a,1,[],[],[],[],[],[],[],0.4504,1,622.226,622.7248,,,,,,802,MAS,CON,150,estilo,,l,0.4504,,622.725,622.725,-0.867256221,0.233897569,0,0,0,,0,14,14,351,1,,,,
,,,,,,ed84ce718407e4d1d2a14cc2,66a626ef09d4e21e1a8894ec,67361081a5f97388d5ff123f,2024-11-14_09h00.47.317,Tarea de género gramatical,2024.2.2,MacIntel,100,,,,,,,,,,,,,,,,,,,,,,,622.7276,623.9766,l,1,[],[],[],[],[],[],[],0.5879,1,623.9767,624.4752,,,,,,614,FEM,DIS,150,novia,el,a,0.5879,,624.4779,624.4792,-0.867256221,0.233897569,0,0,0,,0,15,15,163,1,,,,
,,,,,,ed84ce718407e4d1d2a14cc2,66a626ef09d4e21e1a8894ec,67361081a5f97388d5ff123f,2024-11-14_09h00.47.317,Tarea de género gramatical,2024.2.2,MacIntel,100,,,,,,,,,,,,,,,,,,,,,,,624.48,625.8351,a,1,[],[],[],[],[],[],[],0.6896,1,625.8353,626.3353,,,,,,474,MAS,AGR,150,voto,el,l,0.6896,,626.3355,626.337,-0.867256221,0.233897569,0,0,0,,0,16,16,23,1,,,,
,,,,,,ed84ce718407e4d1d2a14cc2,66a626ef09d4e21e1a8894ec,67361081a5f97388d5ff123f,2024-11-14_09h00.47.317,Tarea de género gramatical,2024.2.2,MacIntel,100,,,,,,,,,,,,,,,,,,,,,,,626.3384,627.7551,a,1,[],[],[],[],[],[],[],0.7502,1,627.7552,628.2555,,,,,,624,MAS,AGR,150,perro,el,l,0.7502,,628.2557,628.2558,-0.867256221,0.233897569,0,0,0,,0,17,17,173,1,,,,
,,,,,,ed84ce718407e4d1d2a14cc2,66a626ef09d4e21e1a8894ec,67361081a5f97388d5ff123f,2024-11-14_09h00.47.317,Tarea de género gramatical,2024.2.2,MacIntel,100,,,,,,,,,,,,,,,,,,,,,,,628.2576,629.4539,l,1,[],[],[],[],[],[],[],0.5329,1,629.4541,629.9551,,,,,,723,FEM,AGR,150,tarta,la,a,0.5329,,629.9552,629.9553,-0.867256221,0.233897569,0,0,0,,0,18,18,272,1,,,,
,,,,,,ed84ce718407e4d1d2a14cc2,66a626ef09d4e21e1a8894ec,67361081a5f97388d5ff123f,2024-11-14_09h00.47.317,Tarea de género gramatical,2024.2.2,MacIntel,100,,,,,,,,,,,,,,,,,,,,,,,629.9581,631.3349,a,1,[],[],[],[],[],[],[],0.7083,1,631.335,631.8348,,,,,,708,MAS,AGR,150,polvo,el,l,0.7083,,631.8349,631.835,-0.867256221,0.233897569,0,0,0,,0,19,19,257,1,,,,
,,,,,,ed84ce718407e4d1d2a14cc2,66a626ef09d4e21e1a8894ec,67361081a5f97388d5ff123f,2024-11-14_09h00.47.317,Tarea de género gramatical,2024.2.2,MacIntel,100,,,,,,,,,,,,,,,,,,,,,,,631.8377,633.155,l,1,[],[],[],[],[],[],[],0.6563,1,633.1552,633.6548,,,,,,751,FEM,CON,150,verdad,,a,0.6563,,633.6576,633.6597,-0.867256221,0.233897569,0,0,0,,0,20,20,300,1,,,,
,,,,,,ed84ce718407e4d1d2a14cc2,66a626ef09d4e21e1a8894ec,67361081a5f97388d5ff123f,2024-11-14_09h00.47.317,Tarea de género gramatical,2024.2.2,MacIntel,100,,,,,,,,,,,,,,,,,,,,,,,633.6611,634.7852,l,1,[],[],[],[],[],[],[],0.4622,1,634.7852,635.2856,,,,,,801,FEM,AGR,150,espada,la,a,0.4622,,635.2858,635.286,-0.867256221,0.233897569,0,0,0,,0,21,21,350,1,,,,
,,,,,,ed84ce718407e4d1d2a14cc2,66a626ef09d4e21e1a8894ec,67361081a5f97388d5ff123f,2024-11-14_09h00.47.317,Tarea de género gramatical,2024.2.2,MacIntel,100,,,,,,,,,,,,,,,,,,,,,,,635.2883,636.5959,l,1,[],[],[],[],[],[],[],0.6391,1,636.5961,637.0948,,,,,,481,FEM,CON,150,edad,,a,0.6391,,637.095,637.0955,-0.867256221,0.233897569,0,0,0,,0,22,22,30,1,,,,
,,,,,,ed84ce718407e4d1d2a14cc2,66a626ef09d4e21e1a8894ec,67361081a5f97388d5ff123f,2024-11-14_09h00.47.317,Tarea de género gramatical,2024.2.2,MacIntel,100,,,,,,,,,,,,,,,,,,,,,,,637.0977,638.1449,l,1,[],[],[],[],[],[],[],0.386,1,638.145,638.6455,,,,,,680,FEM,DIS,150,regla,el,a,0.386,,638.6456,638.6457,-0.867256221,0.233897569,0,0,0,,0,23,23,229,1,,,,
,,,,,,ed84ce718407e4d1d2a14cc2,66a626ef09d4e21e1a8894ec,67361081a5f97388d5ff123f,2024-11-14_09h00.47.317,Tarea de género gramatical,2024.2.2,MacIntel,100,,,,,,,,,,,,,,,,,,,,,,,638.6483,639.7548,l,1,[],[],[],[],[],[],[],0.4419,1,639.7549,640.2556,,,,,,453,FEM,AGR,150,cosa,la,a,0.4419,,640.258,640.2594,-0.867256221,0.233897569,0,0,0,,0,24,24,2,1,,,,
,,,,,,ed84ce718407e4d1d2a14cc2,66a626ef09d4e21e1a8894ec,67361081a5f97388d5ff123f,2024-11-14_09h00.47.317,Tarea de género gramatical,2024.2.2,MacIntel,100,,,,,,,,,,,,,,,,,,,,,,,640.2605,641.3251,l,1,[],[],[],[],[],[],[],0.4006,1,641.3252,641.8254,,,,,,571,FEM,CON,150,pila,,a,0.4006,,641.8255,641.8257,-0.867256221,0.233897569,0,0,0,,0,25,25,120,1,,,,
,,,,,,ed84ce718407e4d1d2a14cc2,66a626ef09d4e21e1a8894ec,67361081a5f97388d5ff123f,2024-11-14_09h00.47.317,Tarea de género gramatical,2024.2.2,MacIntel,100,,,,,,,,,,,,,,,,,,,,,,,641.828,643.025,a,1,[],[],[],[],[],[],[],0.5334,1,643.0252,643.525,,,,,,856,MAS,CON,150,premio,,l,0.5334,,643.5251,643.5253,-0.867256221,0.233897569,0,0,0,,0,26,26,405,1,,,,
,,,,,,ed84ce718407e4d1d2a14cc2,66a626ef09d4e21e1a8894ec,67361081a5f97388d5ff123f,2024-11-14_09h00.47.317,Tarea de género gramatical,2024.2.2,MacIntel,100,,,,,,,,,,,,,,,,,,,,,,,643.5277,644.7053,l,1,[],[],[],[],[],[],[],0.5105,1,644.7054,645.2055,,,,,,495,FEM,AGR,150,isla,la,a,0.5105,,645.2057,645.2058,-0.867256221,0.233897569,0,0,0,,0,27,27,44,1,,,,
,,,,,,ed84ce718407e4d1d2a14cc2,66a626ef09d4e21e1a8894ec,67361081a5f97388d5ff123f,2024-11-14_09h00.47.317,Tarea de género gramatical,2024.2.2,MacIntel,100,,,,,,,,,,,,,,,,,,,,,,,645.2081,646.2963,l,1,[],[],[],[],[],[],[],0.4268,1,646.2965,646.7956,,,,,,727,FEM,CON,150,plaza,,a,0.4268,,646.7957,646.7959,-0.867256221,0.233897569,0,0,0,,0,28,28,276,1,,,,
,,,,,,ed84ce718407e4d1d2a14cc2,66a626ef09d4e21e1a8894ec,67361081a5f97388d5ff123f,2024-11-14_09h00.47.317,Tarea de género gramatical,2024.2.2,MacIntel,100,,,,,,,,,,,,,,,,,,,,,,,646.7979,647.9845,a,1,[],[],[],[],[],[],[],0.5225,1,647.9846,648.4855,,,,,,502,MAS,CON,150,lago,,l,0.5225,,648.4877,648.4889,-0.867256221,0.233897569,0,0,0,,0,29,29,51,1,,,,
,,,,,,ed84ce718407e4d1d2a14cc2,66a626ef09d4e21e1a8894ec,67361081a5f97388d5ff123f,2024-11-14_09h00.47.317,Tarea de género gramatical,2024.2.2,MacIntel,100,,,,,,,,,,,,,,,,,,,,,,,648.4903,649.7152,a,1,[],[],[],[],[],[],[],0.5651,1,649.7153,650.2151,,,,,,592,MAS,CON,150,lodo,,l,0.5651,,650.2151,650.2153,-0.867256221,0.233897569,0,0,0,,0,30,30,141,1,,,,
,,,,,,ed84ce718407e4d1d2a14cc2,66a626ef09d4e21e1a8894ec,67361081a5f97388d5ff123f,2024-11-14_09h00.47.317,Tarea de género gramatical,2024.2.2,MacIntel,100,,,,,,,,,,,,,,,,,,,,,,,650.2166,651.4452,l,1,[],[],[],[],[],[],[],0.5633,1,651.4453,651.9455,,,,,,715,FEM,CON,150,rueda,,a,0.5633,,651.9456,651.9462,-0.867256221,0.233897569,0,0,0,,0,31,31,264,1,,,,
,,,,,,ed84ce718407e4d1d2a14cc2,66a626ef09d4e21e1a8894ec,67361081a5f97388d5ff123f,2024-11-14_09h00.47.317,Tarea de género gramatical,2024.2.2,MacIntel,100,,,,,,,,,,,,,,,,,,,,,,,651.9489,653.055,a,1,[],[],[],[],[],[],[],0.4403,1,653.0551,653.555,,,,,,468,MAS,AGR,150,tren,el,l,0.4403,,653.5552,653.5554,-0.867256221,0.233897569,0,0,0,,0,32,32,17,1,,,,
,,,,,,ed84ce718407e4d1d2a14cc2,66a626ef09d4e21e1a8894ec,67361081a5f97388d5ff123f,2024-11-14_09h00.47.317,Tarea de género gramatical,2024.2.2,MacIntel,100,,,,,,,,,,,,,,,,,,,,,,,653.5577,654.665,l,1,[],[],[],[],[],[],[],0.4428,1,654.6653,655.1654,,,,,,693,FEM,AGR,150,salsa,la,a,0.4428,,655.1683,655.1697,-0.867256221,0.233897569,0,0,0,,0,33,33,242,1,,,,
,,,,,,ed84ce718407e4d1d2a14cc2,66a626ef09d4e21e1a8894ec,67361081a5f97388d5ff123f,2024-11-14_09h00.47.317,Tarea de género gramatical,2024.2.2,MacIntel,100,,,,,,,,,,,,,,,,,,,,,,,655.1707,656.5249,a,1,[],[],[],[],[],[],[],0.6885,1,656.5249,657.0251,,,,,,869,MAS,DIS,150,cuento,la,l,0.6885,,657.0251,657.0252,-0.867256221,0.233897569,0,0,0,,0,34,34,418,1,,,,
,,,,,,ed84ce718407e4d1d2a14cc2,66a626ef09d4e21e1a8894ec,67361081a5f97388d5ff123f,2024-11-14_09h00.47.317,Tarea de género gramatical,2024.2.2,MacIntel,100,,,,,,,,,,,,,,,,,,,,,,,657.0265,658.1653,l,1,[],[],[],[],[],[],[],0.4729,1,658.1655,658.6657,,,,,,578,FEM,DIS,150,leña,el,a,0.4729,,658.6658,658.6661,-0.867256221,0.233897569,0,0,0,,0,35,35,127,1,,,,
,,,,,,ed84ce718407e4d1d2a14cc2,66a626ef09d4e21e1a8894ec,67361081a5f97388d5ff123f,2024-11-14_09h00.47.317,Tarea de género gramatical,2024.2.2,MacIntel,100,,,,,,,,,,,,,,,,,,,,,,,658.6682,659.7852,l,1,[],[],[],[],[],[],[],0.4507,1,659.7853,660.285,,,,,,819,FEM,AGR,150,camisa,la,a,0.4507,,660.2852,660.2852,-0.867256221,0.233897569,0,0,0,,0,36,36,368,1,,,,
,,,,,,ed84ce718407e4d1d2a14cc2,66a626ef09d4e21e1a8894ec,67361081a5f97388d5ff123f,2024-11-14_09h00.47.317,Tarea de género gramatical,2024.2.2,MacIntel,100,,,,,,,,,,,,,,,,,,,,,,,660.2864,661.3444,l,1,[],[],[],[],[],[],[],0.3926,1,661.3445,661.8451,,,,,,741,FEM,AGR,150,aguja,la,a,0.3926,,661.8452,661.8453,-0.867256221,0.233897569,0,0,0,,0,37,37,290,1,,,,
,,,,,,ed84ce718407e4d1d2a14cc2,66a626ef09d4e21e1a8894ec,67361081a5f97388d5ff123f,2024-11-14_09h00.47.317,Tarea de género gramatical,2024.2.2,MacIntel,100,,,,,,,,,,,,,,,,,,,,,,,661.8464,662.9542,l,1,[],[],[],[],[],[],[],0.4393,1,662.9544,663.4556,,,,,,559,FEM,CON,150,gota,,a,0.4393,,663.4583,663.4596,-0.867256221,0.233897569,0,0,0,,0,38,38,108,1,,,,
,,,,,,ed84ce718407e4d1d2a14cc2,66a626ef09d4e21e1a8894ec,67361081a5f97388d5ff123f,2024-11-14_09h00.47.317,Tarea de género gramatical,2024.2.2,MacIntel,100,,,,,,,,,,,,,,,,,,,,,,,663.4608,664.5349,a,1,[],[],[],[],[],[],[],0.4116,1,664.535,665.035,,,,,,714,MAS,AGR,150,pollo,el,l,0.4116,,665.0351,665.0352,-0.867256221,0.233897569,0,0,0,,0,39,39,263,1,,,,
,,,,,,ed84ce718407e4d1d2a14cc2,66a626ef09d4e21e1a8894ec,67361081a5f97388d5ff123f,2024-11-14_09h00.47.317,Tarea de género gramatical,2024.2.2,MacIntel,100,,,,,,,,,,,,,,,,,,,,,,,665.0364,666.1754,l,1,[],[],[],[],[],[],[],0.4723,1,666.1757,666.6751,,,,,,763,FEM,CON,150,ciudad,,a,0.4723,,666.6752,666.6753,-0.867256221,0.233897569,0,0,0,,0,40,40,312,1,,,,
,,,,,,ed84ce718407e4d1d2a14cc2,66a626ef09d4e21e1a8894ec,67361081a5f97388d5ff123f,2024-11-14_09h00.47.317,Tarea de género gramatical,2024.2.2,MacIntel,100,,,,,,,,,,,,,,,,,,,,,,,666.6761,667.7451,a,1,[],[],[],[],[],[],[],0.4088,1,667.7452,668.2456,,,,,,682,MAS,CON,150,calor,,l,0.4088,,668.2459,668.2461,-0.867256221,0.233897569,0,0,0,,0,41,41,231,1,,,,
,,,,,,ed84ce718407e4d1d2a14cc2,66a626ef09d4e21e1a8894ec,67361081a5f97388d5ff123f,2024-11-14_09h00.47.317,Tarea de género gramatical,2024.2.2,MacIntel,100,,,,,,,,,,,,,,,,,,,,,,,668.2488,669.3852,l,1,[],[],[],[],[],[],[],0.4696,1,669.3853,669.8851,,,,,,884,FEM,DIS,150,corona,el,a,0.4696,,669.8861,669.8868,-0.867256221,0.233897569,0,0,0,,0,42,42,433,1,,,,
,,,,,,ed84ce718407e4d1d2a14cc2,66a626ef09d4e21e1a8894ec,67361081a5f97388d5ff123f,2024-11-14_09h00.47.317,Tarea de género gramatical,2024.2.2,MacIntel,100,,,,,,,,,,,,,,,,,,,,,,,669.8873,670.9551,a,1,[],[],[],[],[],[],[],0.4053,1,670.9551,671.4556,,,,,,791,MAS,DIS,150,precio,la,l,0.4053,,671.4557,671.4559,-0.867256221,0.233897569,0,0,0,,0,43,43,340,1,,,,
,,,,,,ed84ce718407e4d1d2a14cc2,66a626ef09d4e21e1a8894ec,67361081a5f97388d5ff123f,2024-11-14_09h00.47.317,Tarea de género gramatical,2024.2.2,MacIntel,100,,,,,,,,,,,,,,,,,,,,,,,671.4584,672.585,a,1,[],[],[],[],[],[],[],0.4683,1,672.585,673.0842,,,,,,676,MAS,CON,150,color,,l,0.4683,,673.0843,673.0844,-0.867256221,0.233897569,0,0,0,,0,44,44,225,1,,,,
,,,,,,ed84ce718407e4d1d2a14cc2,66a626ef09d4e21e1a8894ec,67361081a5f97388d5ff123f,2024-11-14_09h00.47.317,Tarea de género gramatical,2024.2.2,MacIntel,100,,,,,,,,,,,,,,,,,,,,,,,673.0855,674.1752,a,1,[],[],[],[],[],[],[],0.4223,1,674.1752,674.6757,,,,,,797,MAS,DIS,150,cuello,la,l,0.4223,,674.6759,674.6761,-0.867256221,0.233897569,0,0,0,,0,45,45,346,1,,,,
,,,,,,ed84ce718407e4d1d2a14cc2,66a626ef09d4e21e1a8894ec,67361081a5f97388d5ff123f,2024-11-14_09h00.47.317,Tarea de género gramatical,2024.2.2,MacIntel,100,,,,,,,,,,,,,,,,,,,,,,,674.6786,675.7049,l,1,[],[],[],[],[],[],[],0.3607,1,675.7051,676.2052,,,,,,493,FEM,CON,150,nena,,a,0.3607,,676.2052,676.2054,-0.867256221,0.233897569,0,0,0,,0,46,46,42,1,,,,
,,,,,,ed84ce718407e4d1d2a14cc2,66a626ef09d4e21e1a8894ec,67361081a5f97388d5ff123f,2024-11-14_09h00.47.317,Tarea de género gramatical,2024.2.2,MacIntel,100,,,,,,,,,,,,,,,,,,,,,,,676.2066,677.2543,a,1,[],[],[],[],[],[],[],0.3824,1,677.2544,677.7556,,,,,,731,MAS,DIS,150,actor,la,l,0.3824,,677.7579,677.7591,-0.867256221,0.233897569,0,0,0,,0,47,47,280,1,,,,
,,,,,,ed84ce718407e4d1d2a14cc2,66a626ef09d4e21e1a8894ec,67361081a5f97388d5ff123f,2024-11-14_09h00.47.317,Tarea de género gramatical,2024.2.2,MacIntel,100,,,,,,,,,,,,,,,,,,,,,,,677.7599,678.9144,a,1,[],[],[],[],[],[],[],0.4941,1,678.9145,679.4154,,,,,,887,MAS,DIS,150,hombro,la,l,0.4941,,679.4156,679.4157,-0.867256221,0.233897569,0,0,0,,0,48,48,436,1,,,,
,,,,,,ed84ce718407e4d1d2a14cc2,66a626ef09d4e21e1a8894ec,67361081a5f97388d5ff123f,2024-11-14_09h00.47.317,Tarea de género gramatical,2024.2.2,MacIntel,100,,,,,,,,,,,,,,,,,,,,,,,679.4179,680.4152,a,1,[],[],[],[],[],[],[],0.3309,1,680.4154,680.9161,,,,,,623,MAS,DIS,150,libro,la,l,0.3309,,680.9163,680.9164,-0.867256221,0.233897569,0,0,0,,0,49,49,172,1,,,,
,,,,,,ed84ce718407e4d1d2a14cc2,66a626ef09d4e21e1a8894ec,67361081a5f97388d5ff123f,2024-11-14_09h00.47.317,Tarea de género gramatical,2024.2.2,MacIntel,100,,,,,,,,,,,,,,,,,,,,,,,680.919,681.9151,a,1,[],[],[],[],[],[],[],0.3331,1,681.9152,682.4157,,,,,,522,MAS,AGR,150,hoyo,el,l,0.3331,,682.4158,682.4159,-0.867256221,0.233897569,0,0,0,,0,50,50,71,1,,,,
,,,,,,ed84ce718407e4d1d2a14cc2,66a626ef09d4e21e1a8894ec,67361081a5f97388d5ff123f,2024-11-14_09h00.47.317,Tarea de género gramatical,2024.2.2,MacIntel,100,,,,,,,,,,,,,,,,,,,,,,,682.4182,683.4145,a,1,[],[],[],[],[],[],[],0.3305,1,683.4146,683.9153,,,,,,862,MAS,CON,150,espejo,,l,0.3305,,683.9174,683.9187,-0.867256221,0.233897569,0,0,0,,0,51,51,411,1,,,,
,,,,,,ed84ce718407e4d1d2a14cc2,66a626ef09d4e21e1a8894ec,67361081a5f97388d5ff123f,2024-11-14_09h00.47.317,Tarea de género gramatical,2024.2.2,MacIntel,100,,,,,,,,,,,,,,,,,,,,,,,683.9202,684.906,l,1,[],[],[],[],[],[],[],0.3219,1,684.9061,685.4059,,,,,,709,FEM,CON,150,prima,,a,0.3219,,685.4061,685.4062,-0.867256221,0.233897569,0,0,0,,0,52,52,258,1,,,,
,,,,,,ed84ce718407e4d1d2a14cc2,66a626ef09d4e21e1a8894ec,67361081a5f97388d5ff123f,2024-11-14_09h00.47.317,Tarea de género gramatical,2024.2.2,MacIntel,100,,,,,,,,,,,,,,,,,,,,,,,685.4085,686.346,a,1,[],[],[],[],[],[],[],0.2691,1,686.3463,686.8457,,,,,,851,MAS,DIS,150,abrigo,la,l,0.2691,,686.8459,686.846,-0.867256221,0.233897569,0,0,0,,0,53,53,400,1,,,,
,,,,,,ed84ce718407e4d1d2a14cc2,66a626ef09d4e21e1a8894ec,67361081a5f97388d5ff123f,2024-11-14_09h00.47.317,Tarea de género gramatical,2024.2.2,MacIntel,100,,,,,,,,,,,,,,,,,,,,,,,686.8485,687.9353,l,0,[],[],[],[],[],[],[],0.4203,0,687.9362,688.4356,,,,,,462,MAS,AGR,150,plan,el,l,0.4203,,688.4358,688.4362,-0.867256221,0.233897569,0,0,0,,0,54,54,11,1,,,,
,,,,,,ed84ce718407e4d1d2a14cc2,66a626ef09d4e21e1a8894ec,67361081a5f97388d5ff123f,2024-11-14_09h00.47.317,Tarea de género gramatical,2024.2.2,MacIntel,100,,,,,,,,,,,,,,,,,,,,,,,688.4387,689.6055,l,1,[],[],[],[],[],[],[],0.5047,1,689.6066,690.1052,,,,,,608,FEM,DIS,150,chica,el,a,0.5047,,690.1054,690.1056,-0.867256221,0.233897569,0,0,0,,0,55,55,157,1,,,,
,,,,,,ed84ce718407e4d1d2a14cc2,66a626ef09d4e21e1a8894ec,67361081a5f97388d5ff123f,2024-11-14_09h00.47.317,Tarea de género gramatical,2024.2.2,MacIntel,100,,,,,,,,,,,,,,,,,,,,,,,690.1085,691.3154,l,0,[],[],[],[],[],[],[],0.5405,0,691.3165,691.8157,,,,,,528,MAS,AGR,150,oído,el,l,0.5405,,691.8178,691.819,-0.867256221,0.233897569,0,0,0,,0,56,56,77,1,,,,
,,,,,,ed84ce718407e4d1d2a14cc2,66a626ef09d4e21e1a8894ec,67361081a5f97388d5ff123f,2024-11-14_09h00.47.317,Tarea de género gramatical,2024.2.2,MacIntel,100,,,,,,,,,,,,,,,,,,,,,,,691.8201,692.9154,l,1,[],[],[],[],[],[],[],0.4287,1,692.9164,693.4158,,,,,,777,FEM,AGR,150,tienda,la,a,0.4287,,693.4159,693.4162,-0.867256221,0.233897569,0,0,0,,0,57,57,326,1,,,,
,,,,,,ed84ce718407e4d1d2a14cc2,66a626ef09d4e21e1a8894ec,67361081a5f97388d5ff123f,2024-11-14_09h00.47.317,Tarea de género gramatical,2024.2.2,MacIntel,100,,,,,,,,,,,,,,,,,,,,,,,693.4187,694.4355,a,0,[],[],[],[],[],[],[],0.3519,0,694.4376,694.9356,,,,,,585,FEM,AGR,150,raíz,la,a,0.3519,,694.9358,694.9359,-0.867256221,0.233897569,0,0,0,,0,58,58,134,1,,,,
,,,,,,ed84ce718407e4d1d2a14cc2,66a626ef09d4e21e1a8894ec,67361081a5f97388d5ff123f,2024-11-14_09h00.47.317,Tarea de género gramatical,2024.2.2,MacIntel,100,,,,,,,,,,,,,,,,,,,,,,,694.9385,696.2255,a,1,[],[],[],[],[],[],[],0.6204,1,696.2267,696.7255,,,,,,784,MAS,CON,150,ataque,,l,0.6204,,696.7255,696.7255,-0.867256221,0.233897569,0,0,0,,0,59,59,333,1,,,,
,,,,,,ed84ce718407e4d1d2a14cc2,66a626ef09d4e21e1a8894ec,67361081a5f97388d5ff123f,2024-11-14_09h00.47.317,Tarea de género gramatical,2024.2.2,MacIntel,100,,,,,,,,,,,,,,,,,,,,,,,696.7268,697.8947,l,0,[],[],[],[],[],[],[],0.5007,0,697.8956,698.3959,,,,,,551,MAS,DIS,150,giro,la,l,0.5007,,698.3987,698.4,-0.867256221,0.233897569,0,0,0,,0,60,60,100,1,,,,
,,,,,,ed84ce718407e4d1d2a14cc2,66a626ef09d4e21e1a8894ec,67361081a5f97388d5ff123f,2024-11-14_09h00.47.317,Tarea de género gramatical,2024.2.2,MacIntel,100,,,,,,,,,,,,,,,,,,,,,,,698.4014,699.5152,a,1,[],[],[],[],[],[],[],0.4559,1,699.5161,700.0159,,,,,,666,MAS,AGR,150,éxito,el,l,0.4559,,700.016,700.0161,-0.867256221,0.233897569,0,0,0,,0,61,61,215,1,,,,
,,,,,,ed84ce718407e4d1d2a14cc2,66a626ef09d4e21e1a8894ec,67361081a5f97388d5ff123f,2024-11-14_09h00.47.317,Tarea de género gramatical,2024.2.2,MacIntel,100,,,,,,,,,,,,,,,,,,,,,,,700.0183,701.1244,l,1,[],[],[],[],[],[],[],0.4463,1,701.1245,701.6258,,,,,,735,FEM,AGR,150,mafia,la,a,0.4463,,701.626,701.6262,-0.867256221,0.233897569,0,0,0,,0,62,62,284,1,,,,
,,,,,,ed84ce718407e4d1d2a14cc2,66a626ef09d4e21e1a8894ec,67361081a5f97388d5ff123f,2024-11-14_09h00.47.317,Tarea de género gramatical,2024.2.2,MacIntel,100,,,,,,,,,,,,,,,,,,,,,,,701.6285,702.8154,a,1,[],[],[],[],[],[],[],0.5228,1,702.8156,703.3154,,,,,,702,MAS,AGR,150,viejo,el,l,0.5228,,703.3154,703.3156,-0.867256221,0.233897569,0,0,0,,0,63,63,251,1,,,,
,,,,,,ed84ce718407e4d1d2a14cc2,66a626ef09d4e21e1a8894ec,67361081a5f97388d5ff123f,2024-11-14_09h00.47.317,Tarea de género gramatical,2024.2.2,MacIntel,100,,,,,,,,,,,,,,,,,,,,,,,703.3166,704.4156,a,1,[],[],[],[],[],[],[],0.4305,1,704.4157,704.9157,,,,,,706,MAS,CON,150,techo,,l,0.4305,,704.9158,704.916,-0.867256221,0.233897569,0,0,0,,0,64,64,255,1,,,,
,,,,,,ed84ce718407e4d1d2a14cc2,66a626ef09d4e21e1a8894ec,67361081a5f97388d5ff123f,2024-11-14_09h00.47.317,Tarea de género gramatical,2024.2.2,MacIntel,100,,,,,,,,,,,,,,,,,,,,,,,704.9176,705.9655,l,1,[],[],[],[],[],[],[],0.3805,1,705.9656,706.4658,,,,,,877,FEM,CON,150,agenda,,a,0.3805,,706.4683,706.4701,-0.867256221,0.233897569,0,0,0,,0,65,65,426,1,,,,
,,,,,,ed84ce718407e4d1d2a14cc2,66a626ef09d4e21e1a8894ec,67361081a5f97388d5ff123f,2024-11-14_09h00.47.317,Tarea de género gramatical,2024.2.2,MacIntel,100,,,,,,,,,,,,,,,,,,,,,,,706.4714,707.5158,a,1,[],[],[],[],[],[],[],0.3833,1,707.5161,708.0161,,,,,,605,MAS,DIS,150,mundo,la,l,0.3833,,708.0163,708.0164,-0.867256221,0.233897569,0,0,0,,0,66,66,154,1,,,,
,,,,,,ed84ce718407e4d1d2a14cc2,66a626ef09d4e21e1a8894ec,67361081a5f97388d5ff123f,2024-11-14_09h00.47.317,Tarea de género gramatical,2024.2.2,MacIntel,100,,,,,,,,,,,,,,,,,,,,,,,708.0185,709.216,a,0,[],[],[],[],[],[],[],0.5284,0,709.2184,709.716,,,,,,781,FEM,CON,150,cárcel,,a,0.5284,,709.7162,709.7163,-0.867256221,0.233897569,0,0,0,,0,67,67,330,1,,,,
,,,,,,ed84ce718407e4d1d2a14cc2,66a626ef09d4e21e1a8894ec,67361081a5f97388d5ff123f,2024-11-14_09h00.47.317,Tarea de género gramatical,2024.2.2,MacIntel,100,,,,,,,,,,,,,,,,,,,,,,,709.7189,710.9157,a,0,[],[],[],[],[],[],[],0.5351,0,710.9159,711.4154,,,,,,849,FEM,AGR,150,charla,la,a,0.5351,,711.4155,711.4157,-0.867256221,0.233897569,0,0,0,,0,68,68,398,1,,,,
,,,,,,ed84ce718407e4d1d2a14cc2,66a626ef09d4e21e1a8894ec,67361081a5f97388d5ff123f,2024-11-14_09h00.47.317,Tarea de género gramatical,2024.2.2,MacIntel,100,,,,,,,,,,,,,,,,,,,,,,,711.417,712.4654,a,0,[],[],[],[],[],[],[],0.3814,0,712.4655,712.965,,,,,,793,FEM,CON,150,trampa,,a,0.3814,,712.9673,712.9685,-0.867256221,0.233897569,0,0,0,,0,69,69,342,1,,,,
,,,,,,ed84ce718407e4d1d2a14cc2,66a626ef09d4e21e1a8894ec,67361081a5f97388d5ff123f,2024-11-14_09h00.47.317,Tarea de género gramatical,2024.2.2,MacIntel,100,,,,,,,,,,,,,,,,,,,,,,,712.9696,713.9856,l,1,[],[],[],[],[],[],[],0.351,1,713.9866,714.486,,,,,,890,FEM,DIS,150,patada,el,a,0.351,,714.4862,714.4863,-0.867256221,0.233897569,0,0,0,,0,70,70,439,1,,,,
,,,,,,ed84ce718407e4d1d2a14cc2,66a626ef09d4e21e1a8894ec,67361081a5f97388d5ff123f,2024-11-14_09h00.47.317,Tarea de género gramatical,2024.2.2,MacIntel,100,,,,,,,,,,,,,,,,,,,,,,,714.4885,715.5454,a,0,[],[],[],[],[],[],[],0.3952,0,715.5457,716.0453,,,,,,668,FEM,DIS,150,nieve,el,a,0.3952,,716.0453,716.0453,-0.867256221,0.233897569,0,0,0,,0,71,71,217,1,,,,
,,,,,,ed84ce718407e4d1d2a14cc2,66a626ef09d4e21e1a8894ec,67361081a5f97388d5ff123f,2024-11-14_09h00.47.317,Tarea de género gramatical,2024.2.2,MacIntel,100,,,,,,,,,,,,,,,,,,,,,,,716.0457,717.0563,a,1,[],[],[],[],[],[],[],0.356,1,717.0573,717.5553,,,,,,504,MAS,AGR,150,humo,el,l,0.356,,717.5553,717.5554,-0.867256221,0.233897569,0,0,0,,0,72,72,53,1,,,,
,,,,,,ed84ce718407e4d1d2a14cc2,66a626ef09d4e21e1a8894ec,67361081a5f97388d5ff123f,2024-11-14_09h00.47.317,Tarea de género gramatical,2024.2.2,MacIntel,100,,,,,,,,,,,,,,,,,,,,,,,717.5563,718.6962,l,1,[],[],[],[],[],[],[],0.4713,1,718.6964,719.196,,,,,,745,FEM,CON,150,grasa,,a,0.4713,,719.1962,719.1964,-0.867256221,0.233897569,0,0,0,,0,73,73,294,1,,,,
,,,,,,ed84ce718407e4d1d2a14cc2,66a626ef09d4e21e1a8894ec,67361081a5f97388d5ff123f,2024-11-14_09h00.47.317,Tarea de género gramatical,2024.2.2,MacIntel,100,,,,,,,,,,,,,,,,,,,,,,,719.1989,720.2555,a,1,[],[],[],[],[],[],[],0.3923,1,720.2556,720.756,,,,,,526,MAS,CON,150,lujo,,l,0.3923,,720.7583,720.7596,-0.867256221,0.233897569,0,0,0,,0,74,74,75,1,,,,
,,,,,,ed84ce718407e4d1d2a14cc2,66a626ef09d4e21e1a8894ec,67361081a5f97388d5ff123f,2024-11-14_09h00.47.317,Tarea de género gramatical,2024.2.2,MacIntel,100,,,,,,,,,,,,,,,,,,,,,,,720.7611,721.9456,a,0,[],[],[],[],[],[],[],0.5233,0,721.9468,722.4451,,,,,,560,FEM,DIS,150,rosa,el,a,0.5233,,722.4453,722.4456,-0.867256221,0.233897569,0,0,0,,0,75,75,109,1,,,,
,,,,,,ed84ce718407e4d1d2a14cc2,66a626ef09d4e21e1a8894ec,67361081a5f97388d5ff123f,2024-11-14_09h00.47.317,Tarea de género gramatical,2024.2.2,MacIntel,100,,,,,,,,,,,,,,,,,,,,,,,722.4488,723.5055,l,1,[],[],[],[],[],[],[],0.3916,1,723.5065,724.0059,,,,,,639,FEM,AGR,150,pista,la,a,0.3916,,724.0061,724.0062,-0.867256221,0.233897569,0,0,0,,0,76,76,188,1,,,,
,,,,,,ed84ce718407e4d1d2a14cc2,66a626ef09d4e21e1a8894ec,67361081a5f97388d5ff123f,2024-11-14_09h00.47.317,Tarea de género gramatical,2024.2.2,MacIntel,100,,,,,,,,,,,,,,,,,,,,,,,724.0087,724.9858,l,1,[],[],[],[],[],[],[],0.3151,1,724.9859,725.4853,,,,,,477,FEM,AGR,150,mesa,la,a,0.3151,,725.4853,725.4855,-0.867256221,0.233897569,0,0,0,,0,77,77,26,1,,,,
,,,,,,ed84ce718407e4d1d2a14cc2,66a626ef09d4e21e1a8894ec,67361081a5f97388d5ff123f,2024-11-14_09h00.47.317,Tarea de género gramatical,2024.2.2,MacIntel,100,,,,,,,,,,,,,,,,,,,,,,,725.4863,726.4455,l,1,[],[],[],[],[],[],[],0.2938,1,726.4457,726.946,,,,,,579,FEM,AGR,150,rana,la,a,0.2938,,726.9484,726.9498,-0.867256221,0.233897569,0,0,0,,0,78,78,128,1,,,,
,,,,,,ed84ce718407e4d1d2a14cc2,66a626ef09d4e21e1a8894ec,67361081a5f97388d5ff123f,2024-11-14_09h00.47.317,Tarea de género gramatical,2024.2.2,MacIntel,100,,,,,,,,,,,,,,,,,,,,,,,726.9507,727.8863,a,1,[],[],[],[],[],[],[],0.2709,1,727.8866,728.386,,,,,,496,MAS,CON,150,odio,,l,0.2709,,728.3861,728.3864,-0.867256221,0.233897569,0,0,0,,0,79,79,45,1,,,,
,,,,,,ed84ce718407e4d1d2a14cc2,66a626ef09d4e21e1a8894ec,67361081a5f97388d5ff123f,2024-11-14_09h00.47.317,Tarea de género gramatical,2024.2.2,MacIntel,100,,,,,,,,,,,,,,,,,,,,,,,728.3889,729.5057,a,1,[],[],[],[],[],[],[],0.4557,1,729.5058,730.0055,,,,,,630,MAS,AGR,150,fuego,el,l,0.4557,,730.0056,730.0056,-0.867256221,0.233897569,0,0,0,,0,80,80,179,1,,,,
,,,,,,ed84ce718407e4d1d2a14cc2,66a626ef09d4e21e1a8894ec,67361081a5f97388d5ff123f,2024-11-14_09h00.47.317,Tarea de género gramatical,2024.2.2,MacIntel,100,,,,,,,,,,,,,,,,,,,,,,,730.0069,731.0445,a,1,[],[],[],[],[],[],[],0.372,1,731.0447,731.546,,,,,,719,MAS,DIS,150,primo,la,l,0.372,,731.5462,731.5463,-0.867256221,0.233897569,0,0,0,,0,81,81,268,1,,,,
,,,,,,ed84ce718407e4d1d2a14cc2,66a626ef09d4e21e1a8894ec,67361081a5f97388d5ff123f,2024-11-14_09h00.47.317,Tarea de género gramatical,2024.2.2,MacIntel,100,,,,,,,,,,,,,,,,,,,,,,,731.5484,732.5156,l,1,[],[],[],[],[],[],[],0.3011,1,732.5158,733.0159,,,,,,535,FEM,CON,150,gira,,a,0.3011,,733.0161,733.0163,-0.867256221,0.233897569,0,0,0,,0,82,82,84,1,,,,
,,,,,,ed84ce718407e4d1d2a14cc2,66a626ef09d4e21e1a8894ec,67361081a5f97388d5ff123f,2024-11-14_09h00.47.317,Tarea de género gramatical,2024.2.2,MacIntel,100,,,,,,,,,,,,,,,,,,,,,,,733.0186,734.0246,l,1,[],[],[],[],[],[],[],0.343,1,734.0247,734.525,,,,,,669,FEM,AGR,150,costa,la,a,0.343,,734.5273,734.5288,-0.867256221,0.233897569,0,0,0,,0,83,83,218,1,,,,
,,,,,,ed84ce718407e4d1d2a14cc2,66a626ef09d4e21e1a8894ec,67361081a5f97388d5ff123f,2024-11-14_09h00.47.317,Tarea de género gramatical,2024.2.2,MacIntel,100,,,,,,,,,,,,,,,,,,,,,,,734.5299,735.4556,a,1,[],[],[],[],[],[],[],0.2615,1,735.4557,735.956,,,,,,472,MAS,CON,150,pelo,,l,0.2615,,735.9563,735.9565,-0.867256221,0.233897569,0,0,0,,0,84,84,21,1,,,,
,,,,,,ed84ce718407e4d1d2a14cc2,66a626ef09d4e21e1a8894ec,67361081a5f97388d5ff123f,2024-11-14_09h00.47.317,Tarea de género gramatical,2024.2.2,MacIntel,100,,,,,,,,,,,,,,,,,,,,,,,735.9589,737.1454,a,1,[],[],[],[],[],[],[],0.526,1,737.1455,737.6456,,,,,,684,MAS,AGR,150,héroe,el,l,0.526,,737.6457,737.6457,-0.867256221,0.233897569,0,0,0,,0,85,85,233,1,,,,
,,,,,,ed84ce718407e4d1d2a14cc2,66a626ef09d4e21e1a8894ec,67361081a5f97388d5ff123f,2024-11-14_09h00.47.317,Tarea de género gramatical,2024.2.2,MacIntel,100,,,,,,,,,,,,,,,,,,,,,,,737.647,738.6758,a,1,[],[],[],[],[],[],[],0.3601,1,738.676,739.1764,,,,,,810,MAS,AGR,150,puente,el,l,0.3601,,739.1765,739.1769,-0.867256221,0.233897569,0,0,0,,0,86,86,359,1,,,,
,,,,,,ed84ce718407e4d1d2a14cc2,66a626ef09d4e21e1a8894ec,67361081a5f97388d5ff123f,2024-11-14_09h00.47.317,Tarea de género gramatical,2024.2.2,MacIntel,100,,,,,,,,,,,,,,,,,,,,,,,739.1795,740.1557,a,1,[],[],[],[],[],[],[],0.309,1,740.1558,740.6553,,,,,,646,MAS,CON,150,barco,,l,0.309,,740.6576,740.659,-0.867256221,0.233897569,0,0,0,,0,87,87,195,1,,,,
,,,,,,ed84ce718407e4d1d2a14cc2,66a626ef09d4e21e1a8894ec,67361081a5f97388d5ff123f,2024-11-14_09h00.47.317,Tarea de género gramatical,2024.2.2,MacIntel,100,,,,,,,,,,,,,,,,,,,,,,,740.6602,741.7259,a,1,[],[],[],[],[],[],[],0.4051,1,741.726,742.226,,,,,,479,MAS,DIS,150,frío,la,l,0.4051,,742.2262,742.2263,-0.867256221,0.233897569,0,0,0,,0,88,88,28,1,,,,
,,,,,,ed84ce718407e4d1d2a14cc2,66a626ef09d4e21e1a8894ec,67361081a5f97388d5ff123f,2024-11-14_09h00.47.317,Tarea de género gramatical,2024.2.2,MacIntel,100,,,,,,,,,,,,,,,,,,,,,,,742.229,743.2753,a,1,[],[],[],[],[],[],[],0.3825,1,743.2754,743.7761,,,,,,660,MAS,AGR,150,baile,el,l,0.3825,,743.7762,743.7764,-0.867256221,0.233897569,0,0,0,,0,89,89,209,1,,,,
,,,,,,ed84ce718407e4d1d2a14cc2,66a626ef09d4e21e1a8894ec,67361081a5f97388d5ff123f,2024-11-14_09h00.47.317,Tarea de género gramatical,2024.2.2,MacIntel,100,,,,,,,,,,,,,,,,,,,,,,,743.7787,744.7568,l,1,[],[],[],[],[],[],[],0.3176,1,744.7569,745.2567,,,,,,541,FEM,CON,150,hoja,,a,0.3176,,745.2568,745.2569,-0.867256221,0.233897569,0,0,0,,0,90,90,90,1,,,,
,,,,,,ed84ce718407e4d1d2a14cc2,66a626ef09d4e21e1a8894ec,67361081a5f97388d5ff123f,2024-11-14_09h00.47.317,Tarea de género gramatical,2024.2.2,MacIntel,100,,,,,,,,,,,,,,,,,,,,,,,745.2581,746.2359,a,1,[],[],[],[],[],[],[],0.3083,1,746.236,746.7356,,,,,,610,MAS,CON,150,señor,,l,0.3083,,746.7358,746.7358,-0.867256221,0.233897569,0,0,0,,0,91,91,159,1,,,,
,,,,,,ed84ce718407e4d1d2a14cc2,66a626ef09d4e21e1a8894ec,67361081a5f97388d5ff123f,2024-11-14_09h00.47.317,Tarea de género gramatical,2024.2.2,MacIntel,100,,,,,,,,,,,,,,,,,,,,,,,746.7371,747.8047,a,1,[],[],[],[],[],[],[],0.4,1,747.8047,748.3057,,,,,,509,MAS,DIS,150,lobo,la,l,0.4,,748.307,748.3079,-0.867256221,0.233897569,0,0,0,,0,92,92,58,1,,,,
,,,,,,ed84ce718407e4d1d2a14cc2,66a626ef09d4e21e1a8894ec,67361081a5f97388d5ff123f,2024-11-14_09h00.47.317,Tarea de género gramatical,2024.2.2,MacIntel,100,,,,,,,,,,,,,,,,,,,,,,,748.3087,749.1956,l,1,[],[],[],[],[],[],[],0.221,1,749.1957,749.6958,,,,,,823,FEM,CON,150,lluvia,,a,0.221,,749.6959,749.696,-0.867256221,0.233897569,0,0,0,,0,93,93,372,1,,,,
,,,,,,ed84ce718407e4d1d2a14cc2,66a626ef09d4e21e1a8894ec,67361081a5f97388d5ff123f,2024-11-14_09h00.47.317,Tarea de género gramatical,2024.2.2,MacIntel,100,,,,,,,,,,,,,,,,,,,,,,,749.6982,750.7355,a,1,[],[],[],[],[],[],[],0.3723,1,750.7357,751.2359,,,,,,754,MAS,CON,150,tiempo,,l,0.3723,,751.2361,751.2362,-0.867256221,0.233897569,0,0,0,,0,94,94,303,1,,,,
,,,,,,ed84ce718407e4d1d2a14cc2,66a626ef09d4e21e1a8894ec,67361081a5f97388d5ff123f,2024-11-14_09h00.47.317,Tarea de género gramatical,2024.2.2,MacIntel,100,,,,,,,,,,,,,,,,,,,,,,,751.2386,752.3557,a,0,[],[],[],[],[],[],[],0.4487,0,752.3567,752.8555,,,,,,524,FEM,DIS,150,flor,el,a,0.4487,,752.8555,752.8556,-0.867256221,0.233897569,0,0,0,,0,95,95,73,1,,,,
,,,,,,ed84ce718407e4d1d2a14cc2,66a626ef09d4e21e1a8894ec,67361081a5f97388d5ff123f,2024-11-14_09h00.47.317,Tarea de género gramatical,2024.2.2,MacIntel,100,,,,,,,,,,,,,,,,,,,,,,,752.8565,753.9156,l,1,[],[],[],[],[],[],[],0.3915,1,753.9164,754.4152,,,,,,609,FEM,AGR,150,clase,la,a,0.3915,,754.4178,754.4187,-0.867256221,0.233897569,0,0,0,,0,96,96,158,1,,,,
,,,,,,ed84ce718407e4d1d2a14cc2,66a626ef09d4e21e1a8894ec,67361081a5f97388d5ff123f,2024-11-14_09h00.47.317,Tarea de género gramatical,2024.2.2,MacIntel,100,,,,,,,,,,,,,,,,,,,,,,,754.4196,755.3456,l,1,[],[],[],[],[],[],[],0.2648,1,755.3457,755.8452,,,,,,458,FEM,DIS,150,idea,el,a,0.2648,,755.8454,755.8456,-0.867256221,0.233897569,0,0,0,,0,97,97,7,1,,,,
,,,,,,ed84ce718407e4d1d2a14cc2,66a626ef09d4e21e1a8894ec,67361081a5f97388d5ff123f,2024-11-14_09h00.47.317,Tarea de género gramatical,2024.2.2,MacIntel,100,,,,,,,,,,,,,,,,,,,,,,,755.8481,756.8259,a,1,[],[],[],[],[],[],[],0.3106,1,756.826,757.326,,,,,,672,MAS,AGR,150,valor,el,l,0.3106,,757.3261,757.3263,-0.867256221,0.233897569,0,0,0,,0,98,98,221,1,,,,
,,,,,,ed84ce718407e4d1d2a14cc2,66a626ef09d4e21e1a8894ec,67361081a5f97388d5ff123f,2024-11-14_09h00.47.317,Tarea de género gramatical,2024.2.2,MacIntel,100,,,,,,,,,,,,,,,,,,,,,,,757.3287,758.5558,a,0,[],[],[],[],[],[],[],0.5611,0,758.5567,759.0551,,,,,,601,FEM,CON,150,noche,,a,0.5611,,759.0552,759.0556,-0.867256221,0.233897569,0,0,0,,0,99,99,150,1,,,,
,,,,,,ed84ce718407e4d1d2a14cc2,66a626ef09d4e21e1a8894ec,67361081a5f97388d5ff123f,2024-11-14_09h00.47.317,Tarea de género gramatical,2024.2.2,MacIntel,100,,,,,,,,,,,,,,,,,,,,,,,759.058,760.0557,l,1,[],[],[],[],[],[],[],0.3322,1,760.0565,760.5555,,,,,,691,FEM,CON,150,pasta,,a,0.3322,,760.5555,760.5556,-0.867256221,0.233897569,0,0,0,,0,100,100,240,1,,,,
,,,,,,ed84ce718407e4d1d2a14cc2,66a626ef09d4e21e1a8894ec,67361081a5f97388d5ff123f,2024-11-14_09h00.47.317,Tarea de género gramatical,2024.2.2,MacIntel,100,,,,,,,,,,,,,,,,,,,,,,,760.556,761.5257,a,1,[],[],[],[],[],[],[],0.3038,1,761.5258,762.0257,,,,,,779,MAS,DIS,150,futuro,la,l,0.3038,,762.0269,762.0278,-0.867256221,0.233897569,0,0,0,,0,101,101,328,1,,,,
,,,,,,ed84ce718407e4d1d2a14cc2,66a626ef09d4e21e1a8894ec,67361081a5f97388d5ff123f,2024-11-14_09h00.47.317,Tarea de género gramatical,2024.2.2,MacIntel,100,,,,,,,,,,,,,,,,,,,,,,,762.0284,762.9157,l,1,[],[],[],[],[],[],[],0.222,1,762.9158,763.4157,,,,,,847,FEM,CON,150,cuerda,,a,0.222,,763.4159,763.4161,-0.867256221,0.233897569,0,0,0,,0,102,102,396,1,,,,
,,,,,,ed84ce718407e4d1d2a14cc2,66a626ef09d4e21e1a8894ec,67361081a5f97388d5ff123f,2024-11-14_09h00.47.317,Tarea de género gramatical,2024.2.2,MacIntel,100,,,,,,,,,,,,,,,,,,,,,,,763.4184,764.3559,a,1,[],[],[],[],[],[],[],0.2722,1,764.3561,764.8555,,,,,,820,MAS,CON,150,seguro,,l,0.2722,,764.8557,764.8559,-0.867256221,0.233897569,0,0,0,,0,103,103,369,1,,,,
,,,,,,ed84ce718407e4d1d2a14cc2,66a626ef09d4e21e1a8894ec,67361081a5f97388d5ff123f,2024-11-14_09h00.47.317,Tarea de género gramatical,2024.2.2,MacIntel,100,,,,,,,,,,,,,,,,,,,,,,,764.8582,765.8754,l,0,[],[],[],[],[],[],[],0.3557,0,765.8765,766.3766,,,,,,508,MAS,CON,150,mono,,l,0.3557,,766.3768,766.3771,-0.867256221,0.233897569,0,0,0,,0,104,104,57,1,,,,
,,,,,,ed84ce718407e4d1d2a14cc2,66a626ef09d4e21e1a8894ec,67361081a5f97388d5ff123f,2024-11-14_09h00.47.317,Tarea de género gramatical,2024.2.2,MacIntel,100,,,,,,,,,,,,,,,,,,,,,,,766.3787,767.2758,l,1,[],[],[],[],[],[],[],0.2312,1,767.2767,767.7762,,,,,,584,FEM,DIS,150,rama,el,a,0.2312,,767.7787,767.7804,-0.867256221,0.233897569,0,0,0,,0,105,105,133,1,,,,
,,,,,,ed84ce718407e4d1d2a14cc2,66a626ef09d4e21e1a8894ec,67361081a5f97388d5ff123f,2024-11-14_09h00.47.317,Tarea de género gramatical,2024.2.2,MacIntel,100,,,,,,,,,,,,,,,,,,,,,,,767.7816,768.7249,a,1,[],[],[],[],[],[],[],0.2823,1,768.725,769.2254,,,,,,892,MAS,CON,150,cuadro,,l,0.2823,,769.2255,769.2257,-0.867256221,0.233897569,0,0,0,,0,106,106,441,1,,,,
,,,,,,ed84ce718407e4d1d2a14cc2,66a626ef09d4e21e1a8894ec,67361081a5f97388d5ff123f,2024-11-14_09h00.47.317,Tarea de género gramatical,2024.2.2,MacIntel,100,,,,,,,,,,,,,,,,,,,,,,,769.2284,770.3058,l,1,[],[],[],[],[],[],[],0.4116,1,770.3059,770.8061,,,,,,489,FEM,AGR,150,luna,la,a,0.4116,,770.8062,770.8067,-0.867256221,0.233897569,0,0,0,,0,107,107,38,1,,,,
,,,,,,ed84ce718407e4d1d2a14cc2,66a626ef09d4e21e1a8894ec,67361081a5f97388d5ff123f,2024-11-14_09h00.47.317,Tarea de género gramatical,2024.2.2,MacIntel,100,,,,,,,,,,,,,,,,,,,,,,,770.809,771.7159,l,1,[],[],[],[],[],[],[],0.2424,1,771.7159,772.2165,,,,,,897,FEM,AGR,150,lógica,la,a,0.2424,,772.2167,772.2168,-0.867256221,0.233897569,0,0,0,,0,108,108,446,1,,,,
,,,,,,ed84ce718407e4d1d2a14cc2,66a626ef09d4e21e1a8894ec,67361081a5f97388d5ff123f,2024-11-14_09h00.47.317,Tarea de género gramatical,2024.2.2,MacIntel,100,,,,,,,,,,,,,,,,,,,,,,,772.219,773.2057,l,1,[],[],[],[],[],[],[],0.322,1,773.2059,773.706,,,,,,572,FEM,DIS,150,loca,el,a,0.322,,773.7061,773.7065,-0.867256221,0.233897569,0,0,0,,0,109,109,121,1,,,,
,,,,,,ed84ce718407e4d1d2a14cc2,66a626ef09d4e21e1a8894ec,67361081a5f97388d5ff123f,2024-11-14_09h00.47.317,Tarea de género gramatical,2024.2.2,MacIntel,100,,,,,,,,,,,,,,,,,,,,,,,773.7089,774.6248,l,1,[],[],[],[],[],[],[],0.2507,1,774.6249,775.1247,,,,,,872,FEM,DIS,150,rutina,el,a,0.2507,,775.1256,775.1262,-0.867256221,0.233897569,0,0,0,,0,110,110,421,1,,,,
,,,,,,ed84ce718407e4d1d2a14cc2,66a626ef09d4e21e1a8894ec,67361081a5f97388d5ff123f,2024-11-14_09h00.47.317,Tarea de género gramatical,2024.2.2,MacIntel,100,,,,,,,,,,,,,,,,,,,,,,,775.1266,776.2057,a,1,[],[],[],[],[],[],[],0.4117,1,776.2059,776.7064,,,,,,846,MAS,AGR,150,tesoro,el,l,0.4117,,776.7067,776.7071,-0.867256221,0.233897569,0,0,0,,0,111,111,395,1,,,,
,,,,,,ed84ce718407e4d1d2a14cc2,66a626ef09d4e21e1a8894ec,67361081a5f97388d5ff123f,2024-11-14_09h00.47.317,Tarea de género gramatical,2024.2.2,MacIntel,100,,,,,,,,,,,,,,,,,,,,,,,776.7088,777.736,l,1,[],[],[],[],[],[],[],0.3593,1,777.7361,778.2364,,,,,,825,FEM,AGR,150,cadena,la,a,0.3593,,778.2366,778.2367,-0.867256221,0.233897569,0,0,0,,0,112,112,374,1,,,,
,,,,,,ed84ce718407e4d1d2a14cc2,66a626ef09d4e21e1a8894ec,67361081a5f97388d5ff123f,2024-11-14_09h00.47.317,Tarea de género gramatical,2024.2.2,MacIntel,100,,,,,,,,,,,,,,,,,,,,,,,778.2392,779.1857,a,1,[],[],[],[],[],[],[],0.2835,1,779.1858,779.6852,,,,,,732,MAS,AGR,150,bolso,el,l,0.2835,,779.6854,779.6858,-0.867256221,0.233897569,0,0,0,,0,113,113,281,1,,,,
,,,,,,ed84ce718407e4d1d2a14cc2,66a626ef09d4e21e1a8894ec,67361081a5f97388d5ff123f,2024-11-14_09h00.47.317,Tarea de género gramatical,2024.2.2,MacIntel,100,,,,,,,,,,,,,,,,,,,,,,,779.6883,780.756,a,1,[],[],[],[],[],[],[],0.401,1,780.756,781.256,,,,,,654,MAS,AGR,150,papel,el,l,0.401,,781.2579,781.2587,-0.867256221,0.233897569,0,0,0,,0,114,114,203,1,,,,
,,,,,,ed84ce718407e4d1d2a14cc2,66a626ef09d4e21e1a8894ec,67361081a5f97388d5ff123f,2024-11-14_09h00.47.317,Tarea de género gramatical,2024.2.2,MacIntel,100,,,,,,,,,,,,,,,,,,,,,,,781.2593,782.2662,a,1,[],[],[],[],[],[],[],0.3468,1,782.2663,782.766,,,,,,809,MAS,DIS,150,bosque,la,l,0.3468,,782.7661,782.7662,-0.867256221,0.233897569,0,0,0,,0,115,115,358,1,,,,
,,,,,,ed84ce718407e4d1d2a14cc2,66a626ef09d4e21e1a8894ec,67361081a5f97388d5ff123f,2024-11-14_09h00.47.317,Tarea de género gramatical,2024.2.2,MacIntel,100,,,,,,,,,,,,,,,,,,,,,,,782.7678,783.8148,a,1,[],[],[],[],[],[],[],0.3803,1,783.8149,784.3153,,,,,,677,MAS,DIS,150,vuelo,la,l,0.3803,,784.3154,784.3156,-0.867256221,0.233897569,0,0,0,,0,116,116,226,1,,,,
,,,,,,ed84ce718407e4d1d2a14cc2,66a626ef09d4e21e1a8894ec,67361081a5f97388d5ff123f,2024-11-14_09h00.47.317,Tarea de género gramatical,2024.2.2,MacIntel,100,,,,,,,,,,,,,,,,,,,,,,,784.317,785.2956,l,1,[],[],[],[],[],[],[],0.311,1,785.2957,785.7956,,,,,,633,FEM,AGR,150,llave,la,a,0.311,,785.7957,785.7957,-0.867256221,0.233897569,0,0,0,,0,117,117,182,1,,,,
,,,,,,ed84ce718407e4d1d2a14cc2,66a626ef09d4e21e1a8894ec,67361081a5f97388d5ff123f,2024-11-14_09h00.47.317,Tarea de género gramatical,2024.2.2,MacIntel,100,,,,,,,,,,,,,,,,,,,,,,,785.7971,786.6857,l,1,[],[],[],[],[],[],[],0.2266,1,786.6857,787.1861,,,,,,783,FEM,AGR,150,locura,la,a,0.2266,,787.1861,787.1862,-0.867256221,0.233897569,0,0,0,,0,118,118,332,1,,,,
,,,,,,ed84ce718407e4d1d2a14cc2,66a626ef09d4e21e1a8894ec,67361081a5f97388d5ff123f,2024-11-14_09h00.47.317,Tarea de género gramatical,2024.2.2,MacIntel,100,,,,,,,,,,,,,,,,,,,,,,,787.1877,788.0657,a,1,[],[],[],[],[],[],[],0.2125,1,788.0657,788.566,,,,,,707,MAS,DIS,150,pecho,la,l,0.2125,,788.5679,788.5689,-0.867256221,0.233897569,0,0,0,,0,119,119,256,1,,,,
,,,,,,ed84ce718407e4d1d2a14cc2,66a626ef09d4e21e1a8894ec,67361081a5f97388d5ff123f,2024-11-14_09h00.47.317,Tarea de género gramatical,2024.2.2,MacIntel,100,,,,,,,,,,,,,,,,,,,,,,,788.5695,789.6257,l,0,[],[],[],[],[],[],[],0.391,0,789.6261,790.1256,,,,,,635,MAS,DIS,150,sueño,la,l,0.391,,790.1257,790.1258,-0.867256221,0.233897569,0,0,0,,0,120,120,184,1,,,,
,,,,,,ed84ce718407e4d1d2a14cc2,66a626ef09d4e21e1a8894ec,67361081a5f97388d5ff123f,2024-11-14_09h00.47.317,Tarea de género gramatical,2024.2.2,MacIntel,100,,,,,,,,,,,,,,,,,,,,,,,790.1261,791.0159,a,1,[],[],[],[],[],[],[],0.2252,1,791.0169,791.5158,,,,,,773,MAS,DIS,150,marido,la,l,0.2252,,791.5159,791.516,-0.867256221,0.233897569,0,0,0,,0,121,121,322,1,,,,
,,,,,,ed84ce718407e4d1d2a14cc2,66a626ef09d4e21e1a8894ec,67361081a5f97388d5ff123f,2024-11-14_09h00.47.317,Tarea de género gramatical,2024.2.2,MacIntel,100,,,,,,,,,,,,,,,,,,,,,,,791.5173,792.4453,a,1,[],[],[],[],[],[],[],0.266,1,792.4453,792.9461,,,,,,544,MAS,CON,150,cabo,,l,0.266,,792.9462,792.9462,-0.867256221,0.233897569,0,0,0,,0,122,122,93,1,,,,
,,,,,,ed84ce718407e4d1d2a14cc2,66a626ef09d4e21e1a8894ec,67361081a5f97388d5ff123f,2024-11-14_09h00.47.317,Tarea de género gramatical,2024.2.2,MacIntel,100,,,,,,,,,,,,,,,,,,,,,,,792.9475,793.9156,a,0,[],[],[],[],[],[],[],0.3049,0,793.916,794.416,,,,,,517,FEM,CON,150,miel,,a,0.3049,,794.418,794.4189,-0.867256221,0.233897569,0,0,0,,0,123,123,66,1,,,,
,,,,,,ed84ce718407e4d1d2a14cc2,66a626ef09d4e21e1a8894ec,67361081a5f97388d5ff123f,2024-11-14_09h00.47.317,Tarea de género gramatical,2024.2.2,MacIntel,100,,,,,,,,,,,,,,,,,,,,,,,794.4196,795.1758,a,1,[],[],[],[],[],[],[],0.0937,1,795.1761,795.6761,,,,,,580,MAS,CON,150,yate,,l,0.0937,,795.6761,795.6763,-0.867256221,0.233897569,0,0,0,,0,124,124,129,1,,,,
,,,,,,ed84ce718407e4d1d2a14cc2,66a626ef09d4e21e1a8894ec,67361081a5f97388d5ff123f,2024-11-14_09h00.47.317,Tarea de género gramatical,2024.2.2,MacIntel,100,,,,,,,,,,,,,,,,,,,,,,,795.6779,796.6458,a,0,[],[],[],[],[],[],[],0.3015,0,796.6461,797.1458,,,,,,722,FEM,DIS,150,oreja,el,a,0.3015,,797.1458,797.146,-0.867256221,0.233897569,0,0,0,,0,125,125,271,1,,,,
,,,,,,ed84ce718407e4d1d2a14cc2,66a626ef09d4e21e1a8894ec,67361081a5f97388d5ff123f,2024-11-14_09h00.47.317,Tarea de género gramatical,2024.2.2,MacIntel,100,,,,,,,,,,,,,,,,,,,,,,,797.1469,798.0059,l,1,[],[],[],[],[],[],[],0.1923,1,798.0069,798.5064,,,,,,878,FEM,DIS,150,jugada,el,a,0.1923,,798.5068,798.507,-0.867256221,0.233897569,0,0,0,,0,126,126,427,1,,,,
,,,,,,ed84ce718407e4d1d2a14cc2,66a626ef09d4e21e1a8894ec,67361081a5f97388d5ff123f,2024-11-14_09h00.47.317,Tarea de género gramatical,2024.2.2,MacIntel,100,,,,,,,,,,,,,,,,,,,,,,,798.5093,799.696,a,1,[],[],[],[],[],[],[],0.5218,1,799.6961,800.1964,,,,,,755,MAS,DIS,150,hombre,la,l,0.5218,,800.1965,800.1967,-0.867256221,0.233897569,0,0,0,,0,127,127,304,1,,,,
,,,,,,ed84ce718407e4d1d2a14cc2,66a626ef09d4e21e1a8894ec,67361081a5f97388d5ff123f,2024-11-14_09h00.47.317,Tarea de género gramatical,2024.2.2,MacIntel,100,,,,,,,,,,,,,,,,,,,,,,,800.1994,801.2057,l,1,[],[],[],[],[],[],[],0.3412,1,801.2058,801.7063,,,,,,716,FEM,DIS,150,jaula,el,a,0.3412,,801.7087,801.71,-0.867256221,0.233897569,0,0,0,,0,128,128,265,1,,,,
,,,,,,ed84ce718407e4d1d2a14cc2,66a626ef09d4e21e1a8894ec,67361081a5f97388d5ff123f,2024-11-14_09h00.47.317,Tarea de género gramatical,2024.2.2,MacIntel,100,,,,,,,,,,,,,,,,,,,,,,,801.7113,802.6957,a,1,[],[],[],[],[],[],[],0.3214,1,802.6959,803.1957,,,,,,713,MAS,DIS,150,carro,la,l,0.3214,,803.1957,803.1959,-0.867256221,0.233897569,0,0,0,,0,129,129,262,1,,,,
,,,,,,ed84ce718407e4d1d2a14cc2,66a626ef09d4e21e1a8894ec,67361081a5f97388d5ff123f,2024-11-14_09h00.47.317,Tarea de género gramatical,2024.2.2,MacIntel,100,,,,,,,,,,,,,,,,,,,,,,,803.197,804.1681,a,1,[],[],[],[],[],[],[],0.3069,1,804.1685,804.666,,,,,,738,MAS,AGR,150,grado,el,l,0.3069,,804.6662,804.6663,-0.867256221,0.233897569,0,0,0,,0,130,130,287,1,,,,
,,,,,,ed84ce718407e4d1d2a14cc2,66a626ef09d4e21e1a8894ec,67361081a5f97388d5ff123f,2024-11-14_09h00.47.317,Tarea de género gramatical,2024.2.2,MacIntel,100,,,,,,,,,,,,,,,,,,,,,,,804.669,805.5258,l,1,[],[],[],[],[],[],[],0.197,1,805.5258,806.0253,,,,,,567,FEM,AGR,150,raya,la,a,0.197,,806.0253,806.0254,-0.867256221,0.233897569,0,0,0,,0,131,131,116,1,,,,
,,,,,,ed84ce718407e4d1d2a14cc2,66a626ef09d4e21e1a8894ec,67361081a5f97388d5ff123f,2024-11-14_09h00.47.317,Tarea de género gramatical,2024.2.2,MacIntel,100,,,,,,,,,,,,,,,,,,,,,,,806.0258,806.906,a,1,[],[],[],[],[],[],[],0.2213,1,806.9061,807.4058,,,,,,840,MAS,AGR,150,rostro,el,l,0.2213,,807.4061,807.4063,-0.867256221,0.233897569,0,0,0,,0,132,132,389,1,,,,
,,,,,,ed84ce718407e4d1d2a14cc2,66a626ef09d4e21e1a8894ec,67361081a5f97388d5ff123f,2024-11-14_09h00.47.317,Tarea de género gramatical,2024.2.2,MacIntel,100,,,,,,,,,,,,,,,,,,,,,,,807.4066,808.4553,a,1,[],[],[],[],[],[],[],0.3837,1,808.4554,808.9564,,,,,,876,MAS,AGR,150,pánico,el,l,0.3837,,808.9567,808.9571,-0.867256221,0.233897569,0,0,0,,0,133,133,425,1,,,,
,,,,,,ed84ce718407e4d1d2a14cc2,66a626ef09d4e21e1a8894ec,67361081a5f97388d5ff123f,2024-11-14_09h00.47.317,Tarea de género gramatical,2024.2.2,MacIntel,100,,,,,,,,,,,,,,,,,,,,,,,808.9596,809.8662,l,1,[],[],[],[],[],[],[],0.2449,1,809.8663,810.3662,,,,,,703,FEM,CON,150,aldea,,a,0.2449,,810.3664,810.3665,-0.867256221,0.233897569,0,0,0,,0,134,134,252,1,,,,
,,,,,,ed84ce718407e4d1d2a14cc2,66a626ef09d4e21e1a8894ec,67361081a5f97388d5ff123f,2024-11-14_09h00.47.317,Tarea de género gramatical,2024.2.2,MacIntel,100,,,,,,,,,,,,,,,,,,,,,,,810.3688,811.2765,a,1,[],[],[],[],[],[],[],0.2473,1,811.2767,811.7759,,,,,,456,MAS,AGR,150,lado,el,l,0.2473,,811.776,811.7761,-0.867256221,0.233897569,0,0,0,,0,135,135,5,1,,,,
,,,,,,ed84ce718407e4d1d2a14cc2,66a626ef09d4e21e1a8894ec,67361081a5f97388d5ff123f,2024-11-14_09h00.47.317,Tarea de género gramatical,2024.2.2,MacIntel,100,,,,,,,,,,,,,,,,,,,,,,,811.7773,812.6566,l,1,[],[],[],[],[],[],[],0.2115,1,812.6569,813.1559,,,,,,764,FEM,DIS,150,señora,el,a,0.2115,,813.156,813.156,-0.867256221,0.233897569,0,0,0,,0,136,136,313,1,,,,
,,,,,,ed84ce718407e4d1d2a14cc2,66a626ef09d4e21e1a8894ec,67361081a5f97388d5ff123f,2024-11-14_09h00.47.317,Tarea de género gramatical,2024.2.2,MacIntel,100,,,,,,,,,,,,,,,,,,,,,,,813.1572,814.046,l,1,[],[],[],[],[],[],[],0.2213,1,814.0461,814.5465,,,,,,733,FEM,CON,150,pluma,,a,0.2213,,814.5489,814.5504,-0.867256221,0.233897569,0,0,0,,0,137,137,282,1,,,,
,,,,,,ed84ce718407e4d1d2a14cc2,66a626ef09d4e21e1a8894ec,67361081a5f97388d5ff123f,2024-11-14_09h00.47.317,Tarea de género gramatical,2024.2.2,MacIntel,100,,,,,,,,,,,,,,,,,,,,,,,814.5518,815.426,l,1,[],[],[],[],[],[],[],0.2089,1,815.4262,815.9258,,,,,,717,FEM,AGR,150,barba,la,a,0.2089,,815.9259,815.9261,-0.867256221,0.233897569,0,0,0,,0,138,138,266,1,,,,
,,,,,,ed84ce718407e4d1d2a14cc2,66a626ef09d4e21e1a8894ec,67361081a5f97388d5ff123f,2024-11-14_09h00.47.317,Tarea de género gramatical,2024.2.2,MacIntel,100,,,,,,,,,,,,,,,,,,,,,,,815.9282,816.795,a,1,[],[],[],[],[],[],[],0.2016,1,816.7952,817.2965,,,,,,569,MAS,DIS,150,mito,la,l,0.2016,,817.2968,817.2969,-0.867256221,0.233897569,0,0,0,,0,139,139,118,1,,,,
,,,,,,ed84ce718407e4d1d2a14cc2,66a626ef09d4e21e1a8894ec,67361081a5f97388d5ff123f,2024-11-14_09h00.47.317,Tarea de género gramatical,2024.2.2,MacIntel,100,,,,,,,,,,,,,,,,,,,,,,,817.2993,818.146,l,1,[],[],[],[],[],[],[],0.1843,1,818.1461,818.6457,,,,,,591,FEM,AGR,150,cera,la,a,0.1843,,818.6459,818.6459,-0.867256221,0.233897569,0,0,0,,0,140,140,140,1,,,,
,,,,,,ed84ce718407e4d1d2a14cc2,66a626ef09d4e21e1a8894ec,67361081a5f97388d5ff123f,2024-11-14_09h00.47.317,Tarea de género gramatical,2024.2.2,MacIntel,100,,,,,,,,,,,,,,,,,,,,,,,818.6481,819.5161,l,1,[],[],[],[],[],[],[],0.2009,1,819.5163,820.0165,,,,,,805,FEM,CON,150,mirada,,a,0.2009,,820.0187,820.0201,-0.867256221,0.233897569,0,0,0,,0,141,141,354,1,,,,
,,,,,,ed84ce718407e4d1d2a14cc2,66a626ef09d4e21e1a8894ec,67361081a5f97388d5ff123f,2024-11-14_09h00.47.317,Tarea de género gramatical,2024.2.2,MacIntel,100,,,,,,,,,,,,,,,,,,,,,,,820.0212,820.8866,l,0,[],[],[],[],[],[],[],0.1997,0,820.8886,821.3867,,,,,,828,MAS,AGR,150,pastel,el,l,0.1997,,821.3868,821.387,-0.867256221,0.233897569,0,0,0,,0,142,142,377,1,,,,
,,,,,,ed84ce718407e4d1d2a14cc2,66a626ef09d4e21e1a8894ec,67361081a5f97388d5ff123f,2024-11-14_09h00.47.317,Tarea de género gramatical,2024.2.2,MacIntel,100,,,,,,,,,,,,,,,,,,,,,,,821.3895,822.3461,a,1,[],[],[],[],[],[],[],0.2921,1,822.3472,822.8467,,,,,,616,MAS,CON,150,coche,,l,0.2921,,822.8467,822.847,-0.867256221,0.233897569,0,0,0,,0,143,143,165,1,,,,
,,,,,,ed84ce718407e4d1d2a14cc2,66a626ef09d4e21e1a8894ec,67361081a5f97388d5ff123f,2024-11-14_09h00.47.317,Tarea de género gramatical,2024.2.2,MacIntel,100,,,,,,,,,,,,,,,,,,,,,,,822.8491,823.7973,a,1,[],[],[],[],[],[],[],0.2882,1,823.7975,824.2965,,,,,,893,MAS,DIS,150,templo,la,l,0.2882,,824.2967,824.2968,-0.867256221,0.233897569,0,0,0,,0,144,144,442,1,,,,
,,,,,,ed84ce718407e4d1d2a14cc2,66a626ef09d4e21e1a8894ec,67361081a5f97388d5ff123f,2024-11-14_09h00.47.317,Tarea de género gramatical,2024.2.2,MacIntel,100,,,,,,,,,,,,,,,,,,,,,,,824.2988,825.136,a,1,[],[],[],[],[],[],[],0.1754,1,825.1362,825.6364,,,,,,736,MAS,CON,150,reino,,l,0.1754,,825.6366,825.6368,-0.867256221,0.233897569,0,0,0,,0,145,145,285,1,,,,
,,,,,,ed84ce718407e4d1d2a14cc2,66a626ef09d4e21e1a8894ec,67361081a5f97388d5ff123f,2024-11-14_09h00.47.317,Tarea de género gramatical,2024.2.2,MacIntel,100,,,,,,,,,,,,,,,,,,,,,,,825.639,826.4754,a,1,[],[],[],[],[],[],[],0.172,1,826.4756,826.9767,,,,,,461,MAS,DIS,150,país,la,l,0.172,,826.9789,826.9804,-0.867256221,0.233897569,0,0,0,,0,146,146,10,1,,,,
,,,,,,ed84ce718407e4d1d2a14cc2,66a626ef09d4e21e1a8894ec,67361081a5f97388d5ff123f,2024-11-14_09h00.47.317,Tarea de género gramatical,2024.2.2,MacIntel,100,,,,,,,,,,,,,,,,,,,,,,,826.982,827.8667,l,1,[],[],[],[],[],[],[],0.223,1,827.8669,828.3666,,,,,,643,FEM,CON,150,bolsa,,a,0.223,,828.3667,828.367,-0.867256221,0.233897569,0,0,0,,0,147,147,192,1,,,,
,,,,,,ed84ce718407e4d1d2a14cc2,66a626ef09d4e21e1a8894ec,67361081a5f97388d5ff123f,2024-11-14_09h00.47.317,Tarea de género gramatical,2024.2.2,MacIntel,100,,,,,,,,,,,,,,,,,,,,,,,828.3696,829.2661,a,1,[],[],[],[],[],[],[],0.2303,1,829.2661,829.7658,,,,,,822,MAS,AGR,150,delito,el,l,0.2303,,829.766,829.7662,-0.867256221,0.233897569,0,0,0,,0,148,148,371,1,,,,
,,,,,,ed84ce718407e4d1d2a14cc2,66a626ef09d4e21e1a8894ec,67361081a5f97388d5ff123f,2024-11-14_09h00.47.317,Tarea de género gramatical,2024.2.2,MacIntel,100,,,,,,,,,,,,,,,,,,,,,,,829.7686,830.706,a,0,[],[],[],[],[],[],[],0.2706,0,830.7064,831.2059,,,,,,685,FEM,CON,150,torre,,a,0.2706,,831.206,831.2061,-0.867256221,0.233897569,0,0,0,,0,149,149,234,1,,,,
,,,,,,ed84ce718407e4d1d2a14cc2,66a626ef09d4e21e1a8894ec,67361081a5f97388d5ff123f,2024-11-14_09h00.47.317,Tarea de género gramatical,2024.2.2,MacIntel,100,,,,,,,,,,,,,,,,,,,,,,,831.2071,833.8559,,0,[],[],[],[],[],[],[],0.2706,-1,833.8579,834.356,,,,,,590,FEM,DIS,150,mula,el,a,,,834.357,928.1065,-0.837029803,0.101902488,0,0,0,space,0,150,150,139,1,93.7365,,,
,,,,,,ed84ce718407e4d1d2a14cc2,66a626ef09d4e21e1a8894ec,67361081a5f97388d5ff123f,2024-11-14_09h00.47.317,Tarea de género gramatical,2024.2.2,MacIntel,100,,,,,,,,,,,,,,,,,,,,,,,928.1089,929.1868,l,0,[],[],[],[],[],[],[],0.4143,0,929.1881,929.6872,,,,,,593,MAS,DIS,150,faro,la,l,0.4143,,929.6874,929.6876,-0.837029803,0.101902488,0,0,0,,0,151,151,142,1,,,,
,,,,,,ed84ce718407e4d1d2a14cc2,66a626ef09d4e21e1a8894ec,67361081a5f97388d5ff123f,2024-11-14_09h00.47.317,Tarea de género gramatical,2024.2.2,MacIntel,100,,,,,,,,,,,,,,,,,,,,,,,929.6897,930.608,a,1,[],[],[],[],[],[],[],0.2578,1,930.6091,931.1073,,,,,,586,MAS,CON,150,vago,,l,0.2578,,931.1075,931.1076,-0.837029803,0.101902488,0,0,0,,0,152,152,135,1,,,,
,,,,,,ed84ce718407e4d1d2a14cc2,66a626ef09d4e21e1a8894ec,67361081a5f97388d5ff123f,2024-11-14_09h00.47.317,Tarea de género gramatical,2024.2.2,MacIntel,100,,,,,,,,,,,,,,,,,,,,,,,931.1099,932.1356,a,0,[],[],[],[],[],[],[],0.3597,0,932.1365,932.6365,,,,,,757,FEM,CON,150,suerte,,a,0.3597,,932.6366,932.6368,-0.837029803,0.101902488,0,0,0,,0,153,153,306,1,,,,
,,,,,,ed84ce718407e4d1d2a14cc2,66a626ef09d4e21e1a8894ec,67361081a5f97388d5ff123f,2024-11-14_09h00.47.317,Tarea de género gramatical,2024.2.2,MacIntel,100,,,,,,,,,,,,,,,,,,,,,,,932.639,933.5775,a,1,[],[],[],[],[],[],[],0.2712,1,933.5795,934.0773,,,,,,600,MAS,AGR,150,mozo,el,l,0.2712,,934.0776,934.0777,-0.837029803,0.101902488,0,0,0,,0,154,154,149,1,,,,
,,,,,,ed84ce718407e4d1d2a14cc2,66a626ef09d4e21e1a8894ec,67361081a5f97388d5ff123f,2024-11-14_09h00.47.317,Tarea de género gramatical,2024.2.2,MacIntel,100,,,,,,,,,,,,,,,,,,,,,,,934.0801,935.017,l,1,[],[],[],[],[],[],[],0.2741,1,935.0171,935.5167,,,,,,843,FEM,AGR,150,alarma,la,a,0.2741,,935.5176,935.5182,-0.837029803,0.101902488,0,0,0,,0,155,155,392,1,,,,
,,,,,,ed84ce718407e4d1d2a14cc2,66a626ef09d4e21e1a8894ec,67361081a5f97388d5ff123f,2024-11-14_09h00.47.317,Tarea de género gramatical,2024.2.2,MacIntel,100,,,,,,,,,,,,,,,,,,,,,,,935.5186,936.3864,l,1,[],[],[],[],[],[],[],0.2051,1,936.3865,936.8865,,,,,,554,FEM,DIS,150,vela,el,a,0.2051,,936.8865,936.8866,-0.837029803,0.101902488,0,0,0,,0,156,156,103,1,,,,
,,,,,,ed84ce718407e4d1d2a14cc2,66a626ef09d4e21e1a8894ec,67361081a5f97388d5ff123f,2024-11-14_09h00.47.317,Tarea de género gramatical,2024.2.2,MacIntel,100,,,,,,,,,,,,,,,,,,,,,,,936.8874,937.7768,a,1,[],[],[],[],[],[],[],0.2205,1,937.7769,938.2766,,,,,,900,MAS,AGR,150,conejo,el,l,0.2205,,938.2767,938.2767,-0.837029803,0.101902488,0,0,0,,0,157,157,449,1,,,,
,,,,,,ed84ce718407e4d1d2a14cc2,66a626ef09d4e21e1a8894ec,67361081a5f97388d5ff123f,2024-11-14_09h00.47.317,Tarea de género gramatical,2024.2.2,MacIntel,100,,,,,,,,,,,,,,,,,,,,,,,938.2776,939.1867,a,0,[],[],[],[],[],[],[],0.2415,0,939.1875,939.6865,,,,,,818,FEM,DIS,150,gracia,el,a,0.2415,,939.6865,939.6866,-0.837029803,0.101902488,0,0,0,,0,158,158,367,1,,,,
,,,,,,ed84ce718407e4d1d2a14cc2,66a626ef09d4e21e1a8894ec,67361081a5f97388d5ff123f,2024-11-14_09h00.47.317,Tarea de género gramatical,2024.2.2,MacIntel,100,,,,,,,,,,,,,,,,,,,,,,,939.6874,940.5557,l,1,[],[],[],[],[],[],[],0.2006,1,940.5565,941.0572,,,,,,687,FEM,AGR,150,ducha,la,a,0.2006,,941.0598,941.0614,-0.837029803,0.101902488,0,0,0,,0,159,159,236,1,,,,
,,,,,,ed84ce718407e4d1d2a14cc2,66a626ef09d4e21e1a8894ec,67361081a5f97388d5ff123f,2024-11-14_09h00.47.317,Tarea de género gramatical,2024.2.2,MacIntel,100,,,,,,,,,,,,,,,,,,,,,,,941.0626,941.9468,l,1,[],[],[],[],[],[],[],0.2207,1,941.9469,942.4465,,,,,,501,FEM,AGR,150,bala,la,a,0.2207,,942.4466,942.4467,-0.837029803,0.101902488,0,0,0,,0,160,160,50,1,,,,
,,,,,,ed84ce718407e4d1d2a14cc2,66a626ef09d4e21e1a8894ec,67361081a5f97388d5ff123f,2024-11-14_09h00.47.317,Tarea de género gramatical,2024.2.2,MacIntel,100,,,,,,,,,,,,,,,,,,,,,,,942.4477,943.3766,a,1,[],[],[],[],[],[],[],0.2643,1,943.3767,943.8762,,,,,,826,MAS,CON,150,efecto,,l,0.2643,,943.8763,943.8764,-0.837029803,0.101902488,0,0,0,,0,161,161,375,1,,,,
,,,,,,ed84ce718407e4d1d2a14cc2,66a626ef09d4e21e1a8894ec,67361081a5f97388d5ff123f,2024-11-14_09h00.47.317,Tarea de género gramatical,2024.2.2,MacIntel,100,,,,,,,,,,,,,,,,,,,,,,,943.8773,944.8267,a,1,[],[],[],[],[],[],[],0.2807,1,944.8268,945.3275,,,,,,880,MAS,CON,150,título,,l,0.2807,,945.3276,945.3277,-0.837029803,0.101902488,0,0,0,,0,162,162,429,1,,,,
,,,,,,ed84ce718407e4d1d2a14cc2,66a626ef09d4e21e1a8894ec,67361081a5f97388d5ff123f,2024-11-14_09h00.47.317,Tarea de género gramatical,2024.2.2,MacIntel,100,,,,,,,,,,,,,,,,,,,,,,,945.3295,946.507,a,1,[],[],[],[],[],[],[],0.517,1,946.507,947.0067,,,,,,833,MAS,DIS,150,parque,la,l,0.517,,947.0067,947.0069,-0.837029803,0.101902488,0,0,0,,0,163,163,382,1,,,,
,,,,,,ed84ce718407e4d1d2a14cc2,66a626ef09d4e21e1a8894ec,67361081a5f97388d5ff123f,2024-11-14_09h00.47.317,Tarea de género gramatical,2024.2.2,MacIntel,100,,,,,,,,,,,,,,,,,,,,,,,947.0079,948.0373,l,1,[],[],[],[],[],[],[],0.3576,1,948.0375,948.5372,,,,,,807,FEM,AGR,150,lengua,la,a,0.3576,,948.5394,948.5408,-0.837029803,0.101902488,0,0,0,,0,164,164,356,1,,,,
,,,,,,ed84ce718407e4d1d2a14cc2,66a626ef09d4e21e1a8894ec,67361081a5f97388d5ff123f,2024-11-14_09h00.47.317,Tarea de género gramatical,2024.2.2,MacIntel,100,,,,,,,,,,,,,,,,,,,,,,,948.5419,949.4974,a,0,[],[],[],[],[],[],[],0.2888,0,949.4994,949.9973,,,,,,549,FEM,AGR,150,fase,la,a,0.2888,,949.9974,949.9976,-0.837029803,0.101902488,0,0,0,,0,165,165,98,1,,,,
,,,,,,ed84ce718407e4d1d2a14cc2,66a626ef09d4e21e1a8894ec,67361081a5f97388d5ff123f,2024-11-14_09h00.47.317,Tarea de género gramatical,2024.2.2,MacIntel,100,,,,,,,,,,,,,,,,,,,,,,,949.9999,950.9969,a,1,[],[],[],[],[],[],[],0.3323,1,950.9978,951.4968,,,,,,587,MAS,DIS,150,coco,la,l,0.3323,,951.4968,951.4969,-0.837029803,0.101902488,0,0,0,,0,166,166,136,1,,,,
,,,,,,ed84ce718407e4d1d2a14cc2,66a626ef09d4e21e1a8894ec,67361081a5f97388d5ff123f,2024-11-14_09h00.47.317,Tarea de género gramatical,2024.2.2,MacIntel,100,,,,,,,,,,,,,,,,,,,,,,,951.4978,952.3069,a,0,[],[],[],[],[],[],[],0.1454,0,952.3079,952.8074,,,,,,729,FEM,AGR,150,selva,la,a,0.1454,,952.8075,952.8077,-0.837029803,0.101902488,0,0,0,,0,167,167,278,1,,,,
,,,,,,ed84ce718407e4d1d2a14cc2,66a626ef09d4e21e1a8894ec,67361081a5f97388d5ff123f,2024-11-14_09h00.47.317,Tarea de género gramatical,2024.2.2,MacIntel,100,,,,,,,,,,,,,,,,,,,,,,,952.8097,953.7865,l,1,[],[],[],[],[],[],[],0.3106,1,953.7876,954.2867,,,,,,523,FEM,CON,150,roca,,a,0.3106,,954.2891,954.2906,-0.837029803,0.101902488,0,0,0,,0,168,168,72,1,,,,
,,,,,,ed84ce718407e4d1d2a14cc2,66a626ef09d4e21e1a8894ec,67361081a5f97388d5ff123f,2024-11-14_09h00.47.317,Tarea de género gramatical,2024.2.2,MacIntel,100,,,,,,,,,,,,,,,,,,,,,,,954.2916,955.1666,l,1,[],[],[],[],[],[],[],0.2095,1,955.1667,955.6672,,,,,,464,FEM,DIS,150,cara,el,a,0.2095,,955.6674,955.668,-0.837029803,0.101902488,0,0,0,,0,169,169,13,1,,,,
,,,,,,ed84ce718407e4d1d2a14cc2,66a626ef09d4e21e1a8894ec,67361081a5f97388d5ff123f,2024-11-14_09h00.47.317,Tarea de género gramatical,2024.2.2,MacIntel,100,,,,,,,,,,,,,,,,,,,,,,,955.6701,956.5759,a,1,[],[],[],[],[],[],[],0.2415,1,956.5761,957.0773,,,,,,796,MAS,CON,150,juicio,,l,0.2415,,957.0774,957.0776,-0.837029803,0.101902488,0,0,0,,0,170,170,345,1,,,,
,,,,,,ed84ce718407e4d1d2a14cc2,66a626ef09d4e21e1a8894ec,67361081a5f97388d5ff123f,2024-11-14_09h00.47.317,Tarea de género gramatical,2024.2.2,MacIntel,100,,,,,,,,,,,,,,,,,,,,,,,957.0799,958.0068,l,1,[],[],[],[],[],[],[],0.2611,1,958.007,958.5072,,,,,,465,FEM,AGR,150,cama,la,a,0.2611,,958.5074,958.5076,-0.837029803,0.101902488,0,0,0,,0,171,171,14,1,,,,
,,,,,,ed84ce718407e4d1d2a14cc2,66a626ef09d4e21e1a8894ec,67361081a5f97388d5ff123f,2024-11-14_09h00.47.317,Tarea de género gramatical,2024.2.2,MacIntel,100,,,,,,,,,,,,,,,,,,,,,,,958.5099,959.3267,a,1,[],[],[],[],[],[],[],0.1572,1,959.3268,959.8265,,,,,,520,MAS,CON,150,palo,,l,0.1572,,959.8266,959.8268,-0.837029803,0.101902488,0,0,0,,0,172,172,69,1,,,,
,,,,,,ed84ce718407e4d1d2a14cc2,66a626ef09d4e21e1a8894ec,67361081a5f97388d5ff123f,2024-11-14_09h00.47.317,Tarea de género gramatical,2024.2.2,MacIntel,100,,,,,,,,,,,,,,,,,,,,,,,959.8291,960.7366,a,0,[],[],[],[],[],[],[],0.2469,0,960.7371,961.2376,,,,,,836,FEM,DIS,150,sombra,el,a,0.2469,,961.24,961.2408,-0.837029803,0.101902488,0,0,0,,0,173,173,385,1,,,,
,,,,,,ed84ce718407e4d1d2a14cc2,66a626ef09d4e21e1a8894ec,67361081a5f97388d5ff123f,2024-11-14_09h00.47.317,Tarea de género gramatical,2024.2.2,MacIntel,100,,,,,,,,,,,,,,,,,,,,,,,961.2415,962.1468,a,1,[],[],[],[],[],[],[],0.2382,1,962.1477,962.6472,,,,,,774,MAS,AGR,150,cuarto,el,l,0.2382,,962.6474,962.6475,-0.837029803,0.101902488,0,0,0,,0,174,174,323,1,,,,
,,,,,,ed84ce718407e4d1d2a14cc2,66a626ef09d4e21e1a8894ec,67361081a5f97388d5ff123f,2024-11-14_09h00.47.317,Tarea de género gramatical,2024.2.2,MacIntel,100,,,,,,,,,,,,,,,,,,,,,,,962.6495,963.5577,l,1,[],[],[],[],[],[],[],0.2407,1,963.558,964.057,,,,,,830,FEM,DIS,150,madera,el,a,0.2407,,964.0571,964.0572,-0.837029803,0.101902488,0,0,0,,0,175,175,379,1,,,,
,,,,,,ed84ce718407e4d1d2a14cc2,66a626ef09d4e21e1a8894ec,67361081a5f97388d5ff123f,2024-11-14_09h00.47.317,Tarea de género gramatical,2024.2.2,MacIntel,100,,,,,,,,,,,,,,,,,,,,,,,964.0595,964.9962,l,1,[],[],[],[],[],[],[],0.2725,1,964.9963,965.497,,,,,,531,FEM,AGR,150,cima,la,a,0.2725,,965.4971,965.4971,-0.837029803,0.101902488,0,0,0,,0,176,176,80,1,,,,
,,,,,,ed84ce718407e4d1d2a14cc2,66a626ef09d4e21e1a8894ec,67361081a5f97388d5ff123f,2024-11-14_09h00.47.317,Tarea de género gramatical,2024.2.2,MacIntel,100,,,,,,,,,,,,,,,,,,,,,,,965.4981,966.4178,a,0,[],[],[],[],[],[],[],0.2576,0,966.4188,966.9173,,,,,,499,FEM,CON,150,piel,,a,0.2576,,966.9198,966.9214,-0.837029803,0.101902488,0,0,0,,0,177,177,48,1,,,,
,,,,,,ed84ce718407e4d1d2a14cc2,66a626ef09d4e21e1a8894ec,67361081a5f97388d5ff123f,2024-11-14_09h00.47.317,Tarea de género gramatical,2024.2.2,MacIntel,100,,,,,,,,,,,,,,,,,,,,,,,966.9224,967.877,a,0,[],[],[],[],[],[],[],0.2953,0,967.8771,968.3768,,,,,,475,FEM,CON,150,nave,,a,0.2953,,968.377,968.3776,-0.837029803,0.101902488,0,0,0,,0,178,178,24,1,,,,
,,,,,,ed84ce718407e4d1d2a14cc2,66a626ef09d4e21e1a8894ec,67361081a5f97388d5ff123f,2024-11-14_09h00.47.317,Tarea de género gramatical,2024.2.2,MacIntel,100,,,,,,,,,,,,,,,,,,,,,,,968.3799,969.317,l,1,[],[],[],[],[],[],[],0.2754,1,969.318,969.8171,,,,,,603,FEM,AGR,150,mujer,la,a,0.2754,,969.8172,969.8174,-0.837029803,0.101902488,0,0,0,,0,179,179,152,1,,,,
,,,,,,ed84ce718407e4d1d2a14cc2,66a626ef09d4e21e1a8894ec,67361081a5f97388d5ff123f,2024-11-14_09h00.47.317,Tarea de género gramatical,2024.2.2,MacIntel,100,,,,,,,,,,,,,,,,,,,,,,,969.8195,970.7261,l,1,[],[],[],[],[],[],[],0.2421,1,970.7262,971.2274,,,,,,451,FEM,CON,150,casa,,a,0.2421,,971.2275,971.2277,-0.837029803,0.101902488,0,0,0,,0,180,180,0,1,,,,
,,,,,,ed84ce718407e4d1d2a14cc2,66a626ef09d4e21e1a8894ec,67361081a5f97388d5ff123f,2024-11-14_09h00.47.317,Tarea de género gramatical,2024.2.2,MacIntel,100,,,,,,,,,,,,,,,,,,,,,,,971.2301,972.1268,l,0,[],[],[],[],[],[],[],0.2323,0,972.1277,972.6273,,,,,,594,MAS,AGR,150,amor,el,l,0.2323,,972.6274,972.6279,-0.837029803,0.101902488,0,0,0,,0,181,181,143,1,,,,
,,,,,,ed84ce718407e4d1d2a14cc2,66a626ef09d4e21e1a8894ec,67361081a5f97388d5ff123f,2024-11-14_09h00.47.317,Tarea de género gramatical,2024.2.2,MacIntel,100,,,,,,,,,,,,,,,,,,,,,,,972.6304,973.557,a,0,[],[],[],[],[],[],[],0.2644,0,973.557,974.0571,,,,,,782,FEM,DIS,150,basura,el,a,0.2644,,974.0594,974.0603,-0.837029803,0.101902488,0,0,0,,0,182,182,331,1,,,,
,,,,,,ed84ce718407e4d1d2a14cc2,66a626ef09d4e21e1a8894ec,67361081a5f97388d5ff123f,2024-11-14_09h00.47.317,Tarea de género gramatical,2024.2.2,MacIntel,100,,,,,,,,,,,,,,,,,,,,,,,974.0611,974.9074,l,0,[],[],[],[],[],[],[],0.1834,0,974.9076,975.4073,,,,,,839,MAS,DIS,150,tamaño,la,l,0.1834,,975.4075,975.4077,-0.837029803,0.101902488,0,0,0,,0,183,183,388,1,,,,
,,,,,,ed84ce718407e4d1d2a14cc2,66a626ef09d4e21e1a8894ec,67361081a5f97388d5ff123f,2024-11-14_09h00.47.317,Tarea de género gramatical,2024.2.2,MacIntel,100,,,,,,,,,,,,,,,,,,,,,,,975.4098,976.3769,a,1,[],[],[],[],[],[],[],0.3017,1,976.3777,976.8766,,,,,,473,MAS,DIS,150,rato,la,l,0.3017,,976.8767,976.877,-0.837029803,0.101902488,0,0,0,,0,184,184,22,1,,,,
,,,,,,ed84ce718407e4d1d2a14cc2,66a626ef09d4e21e1a8894ec,67361081a5f97388d5ff123f,2024-11-14_09h00.47.317,Tarea de género gramatical,2024.2.2,MacIntel,100,,,,,,,,,,,,,,,,,,,,,,,976.8792,977.7965,l,1,[],[],[],[],[],[],[],0.2557,1,977.7966,978.2974,,,,,,505,FEM,CON,150,taza,,a,0.2557,,978.2976,978.2978,-0.837029803,0.101902488,0,0,0,,0,185,185,54,1,,,,
,,,,,,ed84ce718407e4d1d2a14cc2,66a626ef09d4e21e1a8894ec,67361081a5f97388d5ff123f,2024-11-14_09h00.47.317,Tarea de género gramatical,2024.2.2,MacIntel,100,,,,,,,,,,,,,,,,,,,,,,,978.3006,979.157,l,1,[],[],[],[],[],[],[],0.1897,1,979.1571,979.6564,,,,,,740,FEM,DIS,150,cabra,el,a,0.1897,,979.6589,979.6603,-0.837029803,0.101902488,0,0,0,,0,186,186,289,1,,,,
,,,,,,ed84ce718407e4d1d2a14cc2,66a626ef09d4e21e1a8894ec,67361081a5f97388d5ff123f,2024-11-14_09h00.47.317,Tarea de género gramatical,2024.2.2,MacIntel,100,,,,,,,,,,,,,,,,,,,,,,,979.6612,980.6477,a,1,[],[],[],[],[],[],[],0.3194,1,980.6479,981.1468,,,,,,868,MAS,CON,150,pájaro,,l,0.3194,,981.1469,981.147,-0.837029803,0.101902488,0,0,0,,0,187,187,417,1,,,,
,,,,,,ed84ce718407e4d1d2a14cc2,66a626ef09d4e21e1a8894ec,67361081a5f97388d5ff123f,2024-11-14_09h00.47.317,Tarea de género gramatical,2024.2.2,MacIntel,100,,,,,,,,,,,,,,,,,,,,,,,981.1481,982.1161,l,1,[],[],[],[],[],[],[],0.2985,1,982.1162,982.6176,,,,,,650,FEM,DIS,150,silla,el,a,0.2985,,982.6177,982.6179,-0.837029803,0.101902488,0,0,0,,0,188,188,199,1,,,,
,,,,,,ed84ce718407e4d1d2a14cc2,66a626ef09d4e21e1a8894ec,67361081a5f97388d5ff123f,2024-11-14_09h00.47.317,Tarea de género gramatical,2024.2.2,MacIntel,100,,,,,,,,,,,,,,,,,,,,,,,982.6201,983.6472,a,1,[],[],[],[],[],[],[],0.3623,1,983.6473,984.1468,,,,,,575,MAS,DIS,150,bate,la,l,0.3623,,984.1469,984.1471,-0.837029803,0.101902488,0,0,0,,0,189,189,124,1,,,,
,,,,,,ed84ce718407e4d1d2a14cc2,66a626ef09d4e21e1a8894ec,67361081a5f97388d5ff123f,2024-11-14_09h00.47.317,Tarea de género gramatical,2024.2.2,MacIntel,100,,,,,,,,,,,,,,,,,,,,,,,984.1481,985.0471,a,1,[],[],[],[],[],[],[],0.2327,1,985.0473,985.5468,,,,,,490,MAS,CON,150,dios,,l,0.2327,,985.5469,985.5469,-0.837029803,0.101902488,0,0,0,,0,190,190,39,1,,,,
,,,,,,ed84ce718407e4d1d2a14cc2,66a626ef09d4e21e1a8894ec,67361081a5f97388d5ff123f,2024-11-14_09h00.47.317,Tarea de género gramatical,2024.2.2,MacIntel,100,,,,,,,,,,,,,,,,,,,,,,,985.5473,986.4968,a,1,[],[],[],[],[],[],[],0.2809,1,986.4969,986.9975,,,,,,467,MAS,DIS,150,modo,la,l,0.2809,,986.9998,987.0005,-0.837029803,0.101902488,0,0,0,,0,191,191,16,1,,,,
,,,,,,ed84ce718407e4d1d2a14cc2,66a626ef09d4e21e1a8894ec,67361081a5f97388d5ff123f,2024-11-14_09h00.47.317,Tarea de género gramatical,2024.2.2,MacIntel,100,,,,,,,,,,,,,,,,,,,,,,,987.0013,987.8267,a,0,[],[],[],[],[],[],[],0.1626,0,987.8272,988.3275,,,,,,553,FEM,CON,150,fama,,a,0.1626,,988.3277,988.3279,-0.837029803,0.101902488,0,0,0,,0,192,192,102,1,,,,
,,,,,,ed84ce718407e4d1d2a14cc2,66a626ef09d4e21e1a8894ec,67361081a5f97388d5ff123f,2024-11-14_09h00.47.317,Tarea de género gramatical,2024.2.2,MacIntel,100,,,,,,,,,,,,,,,,,,,,,,,988.3302,989.137,l,1,[],[],[],[],[],[],[],0.1439,1,989.1379,989.6375,,,,,,739,FEM,CON,150,tabla,,a,0.1439,,989.6376,989.6378,-0.837029803,0.101902488,0,0,0,,0,193,193,288,1,,,,
,,,,,,ed84ce718407e4d1d2a14cc2,66a626ef09d4e21e1a8894ec,67361081a5f97388d5ff123f,2024-11-14_09h00.47.317,Tarea de género gramatical,2024.2.2,MacIntel,100,,,,,,,,,,,,,,,,,,,,,,,989.6399,990.5869,a,1,[],[],[],[],[],[],[],0.2827,1,990.5871,991.0875,,,,,,832,MAS,CON,150,teatro,,l,0.2827,,991.0876,991.0878,-0.837029803,0.101902488,0,0,0,,0,194,194,381,1,,,,
,,,,,,ed84ce718407e4d1d2a14cc2,66a626ef09d4e21e1a8894ec,67361081a5f97388d5ff123f,2024-11-14_09h00.47.317,Tarea de género gramatical,2024.2.2,MacIntel,100,,,,,,,,,,,,,,,,,,,,,,,991.0904,992.007,a,1,[],[],[],[],[],[],[],0.2554,1,992.0073,992.5069,,,,,,545,MAS,DIS,150,tomo,la,l,0.2554,,992.5081,992.5088,-0.837029803,0.101902488,0,0,0,,0,195,195,94,1,,,,
,,,,,,ed84ce718407e4d1d2a14cc2,66a626ef09d4e21e1a8894ec,67361081a5f97388d5ff123f,2024-11-14_09h00.47.317,Tarea de género gramatical,2024.2.2,MacIntel,100,,,,,,,,,,,,,,,,,,,,,,,992.5097,993.517,l,1,[],[],[],[],[],[],[],0.3433,1,993.5171,994.0174,,,,,,597,FEM,AGR,150,grúa,la,a,0.3433,,994.0175,994.0181,-0.837029803,0.101902488,0,0,0,,0,196,196,146,1,,,,
,,,,,,ed84ce718407e4d1d2a14cc2,66a626ef09d4e21e1a8894ec,67361081a5f97388d5ff123f,2024-11-14_09h00.47.317,Tarea de género gramatical,2024.2.2,MacIntel,100,,,,,,,,,,,,,,,,,,,,,,,994.0207,994.9072,a,1,[],[],[],[],[],[],[],0.2209,1,994.9074,995.4068,,,,,,785,MAS,DIS,150,montón,la,l,0.2209,,995.4069,995.4071,-0.837029803,0.101902488,0,0,0,,0,197,197,334,1,,,,
,,,,,,ed84ce718407e4d1d2a14cc2,66a626ef09d4e21e1a8894ec,67361081a5f97388d5ff123f,2024-11-14_09h00.47.317,Tarea de género gramatical,2024.2.2,MacIntel,100,,,,,,,,,,,,,,,,,,,,,,,995.408,996.287,a,0,[],[],[],[],[],[],[],0.2086,0,996.288,996.7875,,,,,,848,FEM,DIS,150,hierba,el,a,0.2086,,996.7876,996.7878,-0.837029803,0.101902488,0,0,0,,0,198,198,397,1,,,,
,,,,,,ed84ce718407e4d1d2a14cc2,66a626ef09d4e21e1a8894ec,67361081a5f97388d5ff123f,2024-11-14_09h00.47.317,Tarea de género gramatical,2024.2.2,MacIntel,100,,,,,,,,,,,,,,,,,,,,,,,996.79,997.6671,a,1,[],[],[],[],[],[],[],0.21,1,997.669,998.167,,,,,,760,MAS,CON,150,nombre,,l,0.21,,998.1671,998.1671,-0.837029803,0.101902488,0,0,0,,0,199,199,309,1,,,,
,,,,,,ed84ce718407e4d1d2a14cc2,66a626ef09d4e21e1a8894ec,67361081a5f97388d5ff123f,2024-11-14_09h00.47.317,Tarea de género gramatical,2024.2.2,MacIntel,100,,,,,,,,,,,,,,,,,,,,,,,998.1683,999.0472,a,1,[],[],[],[],[],[],[],0.2122,1,999.0473,999.5474,,,,,,850,MAS,CON,150,barrio,,l,0.2122,,999.5504,999.5523,-0.837029803,0.101902488,0,0,0,,0,200,200,399,1,,,,
,,,,,,ed84ce718407e4d1d2a14cc2,66a626ef09d4e21e1a8894ec,67361081a5f97388d5ff123f,2024-11-14_09h00.47.317,Tarea de género gramatical,2024.2.2,MacIntel,100,,,,,,,,,,,,,,,,,,,,,,,999.5534,1000.4883,a,1,[],[],[],[],[],[],[],0.2771,1,1000.4885,1000.9876,,,,,,749,MAS,DIS,150,rumbo,la,l,0.2771,,1000.9878,1000.988,-0.837029803,0.101902488,0,0,0,,0,201,201,298,1,,,,
,,,,,,ed84ce718407e4d1d2a14cc2,66a626ef09d4e21e1a8894ec,67361081a5f97388d5ff123f,2024-11-14_09h00.47.317,Tarea de género gramatical,2024.2.2,MacIntel,100,,,,,,,,,,,,,,,,,,,,,,,1000.9904,1001.8669,a,1,[],[],[],[],[],[],[],0.2125,1,1001.867,1002.3676,,,,,,534,MAS,AGR,150,mago,el,l,0.2125,,1002.3678,1002.3682,-0.837029803,0.101902488,0,0,0,,0,202,202,83,1,,,,
,,,,,,ed84ce718407e4d1d2a14cc2,66a626ef09d4e21e1a8894ec,67361081a5f97388d5ff123f,2024-11-14_09h00.47.317,Tarea de género gramatical,2024.2.2,MacIntel,100,,,,,,,,,,,,,,,,,,,,,,,1002.3706,1003.2669,a,1,[],[],[],[],[],[],[],0.2345,1,1003.267,1003.7675,,,,,,484,MAS,CON,150,gato,,l,0.2345,,1003.7676,1003.7678,-0.837029803,0.101902488,0,0,0,,0,203,203,33,1,,,,
,,,,,,ed84ce718407e4d1d2a14cc2,66a626ef09d4e21e1a8894ec,67361081a5f97388d5ff123f,2024-11-14_09h00.47.317,Tarea de género gramatical,2024.2.2,MacIntel,100,,,,,,,,,,,,,,,,,,,,,,,1003.77,1004.647,l,1,[],[],[],[],[],[],[],0.2136,1,1004.6472,1005.1469,,,,,,728,FEM,DIS,150,presa,el,a,0.2136,,1005.1481,1005.1489,-0.837029803,0.101902488,0,0,0,,0,204,204,277,1,,,,
,,,,,,ed84ce718407e4d1d2a14cc2,66a626ef09d4e21e1a8894ec,67361081a5f97388d5ff123f,2024-11-14_09h00.47.317,Tarea de género gramatical,2024.2.2,MacIntel,100,,,,,,,,,,,,,,,,,,,,,,,1005.1496,1006.0378,l,1,[],[],[],[],[],[],[],0.2217,1,1006.0381,1006.5375,,,,,,896,FEM,DIS,150,bañera,el,a,0.2217,,1006.5379,1006.5381,-0.837029803,0.101902488,0,0,0,,0,205,205,445,1,,,,
,,,,,,ed84ce718407e4d1d2a14cc2,66a626ef09d4e21e1a8894ec,67361081a5f97388d5ff123f,2024-11-14_09h00.47.317,Tarea de género gramatical,2024.2.2,MacIntel,100,,,,,,,,,,,,,,,,,,,,,,,1006.5404,1007.3878,a,1,[],[],[],[],[],[],[],0.1855,1,1007.3879,1007.8875,,,,,,618,MAS,AGR,150,sitio,el,l,0.1855,,1007.8875,1007.8877,-0.837029803,0.101902488,0,0,0,,0,206,206,167,1,,,,
,,,,,,ed84ce718407e4d1d2a14cc2,66a626ef09d4e21e1a8894ec,67361081a5f97388d5ff123f,2024-11-14_09h00.47.317,Tarea de género gramatical,2024.2.2,MacIntel,100,,,,,,,,,,,,,,,,,,,,,,,1007.8902,1008.7571,l,1,[],[],[],[],[],[],[],0.2019,1,1008.7571,1009.2571,,,,,,529,FEM,CON,150,mina,,a,0.2019,,1009.2571,1009.2572,-0.837029803,0.101902488,0,0,0,,0,207,207,78,1,,,,
,,,,,,ed84ce718407e4d1d2a14cc2,66a626ef09d4e21e1a8894ec,67361081a5f97388d5ff123f,2024-11-14_09h00.47.317,Tarea de género gramatical,2024.2.2,MacIntel,100,,,,,,,,,,,,,,,,,,,,,,,1009.2584,1010.1471,l,1,[],[],[],[],[],[],[],0.2207,1,1010.1472,1010.6478,,,,,,476,FEM,DIS,150,pena,el,a,0.2207,,1010.6479,1010.648,-0.837029803,0.101902488,0,0,0,,0,208,208,25,1,,,,
,,,,,,ed84ce718407e4d1d2a14cc2,66a626ef09d4e21e1a8894ec,67361081a5f97388d5ff123f,2024-11-14_09h00.47.317,Tarea de género gramatical,2024.2.2,MacIntel,100,,,,,,,,,,,,,,,,,,,,,,,1010.6498,1011.5172,a,1,[],[],[],[],[],[],[],0.2061,1,1011.5173,1012.0175,,,,,,852,MAS,AGR,150,ladrón,el,l,0.2061,,1012.0201,1012.0214,-0.837029803,0.101902488,0,0,0,,0,209,209,401,1,,,,
,,,,,,ed84ce718407e4d1d2a14cc2,66a626ef09d4e21e1a8894ec,67361081a5f97388d5ff123f,2024-11-14_09h00.47.317,Tarea de género gramatical,2024.2.2,MacIntel,100,,,,,,,,,,,,,,,,,,,,,,,1012.0224,1012.8961,a,1,[],[],[],[],[],[],[],0.2094,1,1012.8961,1013.3975,,,,,,726,MAS,AGR,150,ritmo,el,l,0.2094,,1013.3977,1013.398,-0.837029803,0.101902488,0,0,0,,0,210,210,275,1,,,,
,,,,,,ed84ce718407e4d1d2a14cc2,66a626ef09d4e21e1a8894ec,67361081a5f97388d5ff123f,2024-11-14_09h00.47.317,Tarea de género gramatical,2024.2.2,MacIntel,100,,,,,,,,,,,,,,,,,,,,,,,1013.4002,1014.2979,l,1,[],[],[],[],[],[],[],0.2333,1,1014.2981,1014.7977,,,,,,855,FEM,AGR,150,parada,la,a,0.2333,,1014.7978,1014.798,-0.837029803,0.101902488,0,0,0,,0,211,211,404,1,,,,
,,,,,,ed84ce718407e4d1d2a14cc2,66a626ef09d4e21e1a8894ec,67361081a5f97388d5ff123f,2024-11-14_09h00.47.317,Tarea de género gramatical,2024.2.2,MacIntel,100,,,,,,,,,,,,,,,,,,,,,,,1014.8007,1015.6159,a,0,[],[],[],[],[],[],[],0.1496,0,1015.6163,1016.1192,,,,,,867,FEM,AGR,150,cabaña,la,a,0.1496,,1016.1194,1016.1195,-0.837029803,0.101902488,0,0,0,,0,212,212,416,1,,,,
,,,,,,ed84ce718407e4d1d2a14cc2,66a626ef09d4e21e1a8894ec,67361081a5f97388d5ff123f,2024-11-14_09h00.47.317,Tarea de género gramatical,2024.2.2,MacIntel,100,,,,,,,,,,,,,,,,,,,,,,,1016.1209,1016.9972,a,1,[],[],[],[],[],[],[],0.2096,1,1016.9981,1017.4968,,,,,,480,MAS,AGR,150,cine,el,l,0.2096,,1017.4991,1017.5004,-0.837029803,0.101902488,0,0,0,,0,213,213,29,1,,,,
,,,,,,ed84ce718407e4d1d2a14cc2,66a626ef09d4e21e1a8894ec,67361081a5f97388d5ff123f,2024-11-14_09h00.47.317,Tarea de género gramatical,2024.2.2,MacIntel,100,,,,,,,,,,,,,,,,,,,,,,,1017.5017,1018.438,a,1,[],[],[],[],[],[],[],0.2784,1,1018.4381,1018.9368,,,,,,498,MAS,AGR,150,loco,el,l,0.2784,,1018.937,1018.9372,-0.837029803,0.101902488,0,0,0,,0,214,214,47,1,,,,
,,,,,,ed84ce718407e4d1d2a14cc2,66a626ef09d4e21e1a8894ec,67361081a5f97388d5ff123f,2024-11-14_09h00.47.317,Tarea de género gramatical,2024.2.2,MacIntel,100,,,,,,,,,,,,,,,,,,,,,,,1018.9396,1019.8072,l,1,[],[],[],[],[],[],[],0.2009,1,1019.8073,1020.3061,,,,,,627,FEM,AGR,150,broma,la,a,0.2009,,1020.3061,1020.3062,-0.837029803,0.101902488,0,0,0,,0,215,215,176,1,,,,
,,,,,,ed84ce718407e4d1d2a14cc2,66a626ef09d4e21e1a8894ec,67361081a5f97388d5ff123f,2024-11-14_09h00.47.317,Tarea de género gramatical,2024.2.2,MacIntel,100,,,,,,,,,,,,,,,,,,,,,,,1020.3075,1021.2072,a,1,[],[],[],[],[],[],[],0.2283,1,1021.2073,1021.7074,,,,,,659,MAS,DIS,150,banco,la,l,0.2283,,1021.7077,1021.7078,-0.837029803,0.101902488,0,0,0,,0,216,216,208,1,,,,
,,,,,,ed84ce718407e4d1d2a14cc2,66a626ef09d4e21e1a8894ec,67361081a5f97388d5ff123f,2024-11-14_09h00.47.317,Tarea de género gramatical,2024.2.2,MacIntel,100,,,,,,,,,,,,,,,,,,,,,,,1021.7099,1022.4668,l,0,[],[],[],[],[],[],[],0.0919,0,1022.4677,1022.9679,,,,,,767,MAS,DIS,150,número,la,l,0.0919,,1022.9681,1022.9683,-0.837029803,0.101902488,0,0,0,,0,217,217,316,1,,,,
,,,,,,ed84ce718407e4d1d2a14cc2,66a626ef09d4e21e1a8894ec,67361081a5f97388d5ff123f,2024-11-14_09h00.47.317,Tarea de género gramatical,2024.2.2,MacIntel,100,,,,,,,,,,,,,,,,,,,,,,,1022.9708,1023.8561,l,1,[],[],[],[],[],[],[],0.2212,1,1023.8569,1024.3576,,,,,,771,FEM,AGR,150,comida,la,a,0.2212,,1024.3603,1024.3616,-0.837029803,0.101902488,0,0,0,,0,218,218,320,1,,,,
,,,,,,ed84ce718407e4d1d2a14cc2,66a626ef09d4e21e1a8894ec,67361081a5f97388d5ff123f,2024-11-14_09h00.47.317,Tarea de género gramatical,2024.2.2,MacIntel,100,,,,,,,,,,,,,,,,,,,,,,,1024.3625,1025.4886,a,1,[],[],[],[],[],[],[],0.4665,1,1025.4886,1025.9872,,,,,,875,MAS,DIS,150,chiste,la,l,0.4665,,1025.9873,1025.9874,-0.837029803,0.101902488,0,0,0,,0,219,219,424,1,,,,
,,,,,,ed84ce718407e4d1d2a14cc2,66a626ef09d4e21e1a8894ec,67361081a5f97388d5ff123f,2024-11-14_09h00.47.317,Tarea de género gramatical,2024.2.2,MacIntel,100,,,,,,,,,,,,,,,,,,,,,,,1025.9883,1026.9673,a,1,[],[],[],[],[],[],[],0.312,1,1026.9675,1027.4669,,,,,,658,MAS,CON,150,suelo,,l,0.312,,1027.467,1027.4672,-0.837029803,0.101902488,0,0,0,,0,220,220,207,1,,,,
,,,,,,ed84ce718407e4d1d2a14cc2,66a626ef09d4e21e1a8894ec,67361081a5f97388d5ff123f,2024-11-14_09h00.47.317,Tarea de género gramatical,2024.2.2,MacIntel,100,,,,,,,,,,,,,,,,,,,,,,,1027.4697,1028.4076,l,1,[],[],[],[],[],[],[],0.2711,1,1028.4079,1028.9073,,,,,,686,FEM,DIS,150,deuda,el,a,0.2711,,1028.9074,1028.9077,-0.837029803,0.101902488,0,0,0,,0,221,221,235,1,,,,
,,,,,,ed84ce718407e4d1d2a14cc2,66a626ef09d4e21e1a8894ec,67361081a5f97388d5ff123f,2024-11-14_09h00.47.317,Tarea de género gramatical,2024.2.2,MacIntel,100,,,,,,,,,,,,,,,,,,,,,,,1028.9101,1029.8377,l,1,[],[],[],[],[],[],[],0.2583,1,1029.8379,1030.3369,,,,,,681,FEM,AGR,150,bruja,la,a,0.2583,,1030.3391,1030.3399,-0.837029803,0.101902488,0,0,0,,0,222,222,230,1,,,,
,,,,,,ed84ce718407e4d1d2a14cc2,66a626ef09d4e21e1a8894ec,67361081a5f97388d5ff123f,2024-11-14_09h00.47.317,Tarea de género gramatical,2024.2.2,MacIntel,100,,,,,,,,,,,,,,,,,,,,,,,1030.3406,1031.1887,a,0,[],[],[],[],[],[],[],0.186,0,1031.1898,1031.6875,,,,,,789,FEM,AGR,150,salida,la,a,0.186,,1031.6877,1031.6879,-0.837029803,0.101902488,0,0,0,,0,223,223,338,1,,,,
,,,,,,ed84ce718407e4d1d2a14cc2,66a626ef09d4e21e1a8894ec,67361081a5f97388d5ff123f,2024-11-14_09h00.47.317,Tarea de género gramatical,2024.2.2,MacIntel,100,,,,,,,,,,,,,,,,,,,,,,,1031.6899,1032.538,l,1,[],[],[],[],[],[],[],0.1787,1,1032.54,1033.0375,,,,,,487,FEM,CON,150,sala,,a,0.1787,,1033.0376,1033.0378,-0.837029803,0.101902488,0,0,0,,0,224,224,36,1,,,,
,,,,,,ed84ce718407e4d1d2a14cc2,66a626ef09d4e21e1a8894ec,67361081a5f97388d5ff123f,2024-11-14_09h00.47.317,Tarea de género gramatical,2024.2.2,MacIntel,100,,,,,,,,,,,,,,,,,,,,,,,1033.0404,1033.8979,a,1,[],[],[],[],[],[],[],0.1912,1,1033.8981,1034.3969,,,,,,497,MAS,DIS,150,olor,la,l,0.1912,,1034.3971,1034.3974,-0.837029803,0.101902488,0,0,0,,0,225,225,46,1,,,,
,,,,,,ed84ce718407e4d1d2a14cc2,66a626ef09d4e21e1a8894ec,67361081a5f97388d5ff123f,2024-11-14_09h00.47.317,Tarea de género gramatical,2024.2.2,MacIntel,100,,,,,,,,,,,,,,,,,,,,,,,1034.4,1035.2672,l,0,[],[],[],[],[],[],[],0.2022,0,1035.2681,1035.7677,,,,,,485,MAS,DIS,150,taxi,la,l,0.2022,,1035.7679,1035.768,-0.837029803,0.101902488,0,0,0,,0,226,226,34,1,,,,
,,,,,,ed84ce718407e4d1d2a14cc2,66a626ef09d4e21e1a8894ec,67361081a5f97388d5ff123f,2024-11-14_09h00.47.317,Tarea de género gramatical,2024.2.2,MacIntel,100,,,,,,,,,,,,,,,,,,,,,,,1035.7703,1036.7873,a,1,[],[],[],[],[],[],[],0.3509,1,1036.7884,1037.2875,,,,,,786,MAS,AGR,150,crimen,el,l,0.3509,,1037.2897,1037.2909,-0.837029803,0.101902488,0,0,0,,0,227,227,335,1,,,,
,,,,,,ed84ce718407e4d1d2a14cc2,66a626ef09d4e21e1a8894ec,67361081a5f97388d5ff123f,2024-11-14_09h00.47.317,Tarea de género gramatical,2024.2.2,MacIntel,100,,,,,,,,,,,,,,,,,,,,,,,1037.292,1038.1164,a,1,[],[],[],[],[],[],[],0.1608,1,1038.1165,1038.6173,,,,,,491,MAS,DIS,150,bote,la,l,0.1608,,1038.6174,1038.6175,-0.837029803,0.101902488,0,0,0,,0,228,228,40,1,,,,
,,,,,,ed84ce718407e4d1d2a14cc2,66a626ef09d4e21e1a8894ec,67361081a5f97388d5ff123f,2024-11-14_09h00.47.317,Tarea de género gramatical,2024.2.2,MacIntel,100,,,,,,,,,,,,,,,,,,,,,,,1038.6189,1039.5772,l,1,[],[],[],[],[],[],[],0.2925,1,1039.5773,1040.0779,,,,,,885,FEM,AGR,150,niebla,la,a,0.2925,,1040.0781,1040.0783,-0.837029803,0.101902488,0,0,0,,0,229,229,434,1,,,,
,,,,,,ed84ce718407e4d1d2a14cc2,66a626ef09d4e21e1a8894ec,67361081a5f97388d5ff123f,2024-11-14_09h00.47.317,Tarea de género gramatical,2024.2.2,MacIntel,100,,,,,,,,,,,,,,,,,,,,,,,1040.0807,1041.0373,l,1,[],[],[],[],[],[],[],0.2911,1,1041.0375,1041.5377,,,,,,644,FEM,DIS,150,banda,el,a,0.2911,,1041.5379,1041.5381,-0.837029803,0.101902488,0,0,0,,0,230,230,193,1,,,,
,,,,,,ed84ce718407e4d1d2a14cc2,66a626ef09d4e21e1a8894ec,67361081a5f97388d5ff123f,2024-11-14_09h00.47.317,Tarea de género gramatical,2024.2.2,MacIntel,100,,,,,,,,,,,,,,,,,,,,,,,1041.5402,1042.4473,l,0,[],[],[],[],[],[],[],0.2379,0,1042.4481,1042.9473,,,,,,737,MAS,DIS,150,plato,la,l,0.2379,,1042.9496,1042.951,-0.837029803,0.101902488,0,0,0,,0,231,231,286,1,,,,
,,,,,,ed84ce718407e4d1d2a14cc2,66a626ef09d4e21e1a8894ec,67361081a5f97388d5ff123f,2024-11-14_09h00.47.317,Tarea de género gramatical,2024.2.2,MacIntel,100,,,,,,,,,,,,,,,,,,,,,,,1042.9521,1043.8574,a,1,[],[],[],[],[],[],[],0.2408,1,1043.8585,1044.3577,,,,,,670,MAS,CON,150,huevo,,l,0.2408,,1044.3579,1044.3581,-0.837029803,0.101902488,0,0,0,,0,232,232,219,1,,,,
,,,,,,ed84ce718407e4d1d2a14cc2,66a626ef09d4e21e1a8894ec,67361081a5f97388d5ff123f,2024-11-14_09h00.47.317,Tarea de género gramatical,2024.2.2,MacIntel,100,,,,,,,,,,,,,,,,,,,,,,,1044.3602,1045.4879,l,1,[],[],[],[],[],[],[],0.4632,1,1045.4881,1045.9873,,,,,,841,FEM,CON,150,altura,,a,0.4632,,1045.9873,1045.9875,-0.837029803,0.101902488,0,0,0,,0,233,233,390,1,,,,
,,,,,,ed84ce718407e4d1d2a14cc2,66a626ef09d4e21e1a8894ec,67361081a5f97388d5ff123f,2024-11-14_09h00.47.317,Tarea de género gramatical,2024.2.2,MacIntel,100,,,,,,,,,,,,,,,,,,,,,,,1045.9885,1046.8569,a,1,[],[],[],[],[],[],[],0.204,1,1046.8571,1047.3569,,,,,,874,MAS,CON,150,rastro,,l,0.204,,1047.3569,1047.3571,-0.837029803,0.101902488,0,0,0,,0,234,234,423,1,,,,
,,,,,,ed84ce718407e4d1d2a14cc2,66a626ef09d4e21e1a8894ec,67361081a5f97388d5ff123f,2024-11-14_09h00.47.317,Tarea de género gramatical,2024.2.2,MacIntel,100,,,,,,,,,,,,,,,,,,,,,,,1047.358,1048.3405,l,0,[],[],[],[],[],[],[],0.3188,0,1048.3417,1048.8372,,,,,,588,MAS,AGR,150,luto,el,l,0.3188,,1048.8374,1048.8376,-0.837029803,0.101902488,0,0,0,,0,235,235,137,1,,,,
,,,,,,ed84ce718407e4d1d2a14cc2,66a626ef09d4e21e1a8894ec,67361081a5f97388d5ff123f,2024-11-14_09h00.47.317,Tarea de género gramatical,2024.2.2,MacIntel,100,,,,,,,,,,,,,,,,,,,,,,,1048.8399,1049.7175,l,1,[],[],[],[],[],[],[],0.2112,1,1049.7186,1050.2172,,,,,,675,FEM,AGR,150,pieza,la,a,0.2112,,1050.2183,1050.2188,-0.837029803,0.101902488,0,0,0,,0,236,236,224,1,,,,
,,,,,,ed84ce718407e4d1d2a14cc2,66a626ef09d4e21e1a8894ec,67361081a5f97388d5ff123f,2024-11-14_09h00.47.317,Tarea de género gramatical,2024.2.2,MacIntel,100,,,,,,,,,,,,,,,,,,,,,,,1050.2196,1051.3091,a,1,[],[],[],[],[],[],[],0.4272,1,1051.3093,1051.808,,,,,,886,MAS,CON,150,objeto,,l,0.4272,,1051.8082,1051.8086,-0.837029803,0.101902488,0,0,0,,0,237,237,435,1,,,,
,,,,,,ed84ce718407e4d1d2a14cc2,66a626ef09d4e21e1a8894ec,67361081a5f97388d5ff123f,2024-11-14_09h00.47.317,Tarea de género gramatical,2024.2.2,MacIntel,100,,,,,,,,,,,,,,,,,,,,,,,1051.8108,1052.7972,a,1,[],[],[],[],[],[],[],0.3233,1,1052.7974,1053.2978,,,,,,838,MAS,CON,150,empleo,,l,0.3233,,1053.2979,1053.2981,-0.837029803,0.101902488,0,0,0,,0,238,238,387,1,,,,
,,,,,,ed84ce718407e4d1d2a14cc2,66a626ef09d4e21e1a8894ec,67361081a5f97388d5ff123f,2024-11-14_09h00.47.317,Tarea de género gramatical,2024.2.2,MacIntel,100,,,,,,,,,,,,,,,,,,,,,,,1053.3004,1054.2475,l,1,[],[],[],[],[],[],[],0.2819,1,1054.2476,1054.7478,,,,,,511,FEM,CON,150,ruta,,a,0.2819,,1054.7479,1054.7481,-0.837029803,0.101902488,0,0,0,,0,239,239,60,1,,,,
,,,,,,ed84ce718407e4d1d2a14cc2,66a626ef09d4e21e1a8894ec,67361081a5f97388d5ff123f,2024-11-14_09h00.47.317,Tarea de género gramatical,2024.2.2,MacIntel,100,,,,,,,,,,,,,,,,,,,,,,,1054.7505,1055.7073,a,1,[],[],[],[],[],[],[],0.2913,1,1055.7075,1056.2078,,,,,,790,MAS,CON,150,pasado,,l,0.2913,,1056.2101,1056.2116,-0.837029803,0.101902488,0,0,0,,0,240,240,339,1,,,,
,,,,,,ed84ce718407e4d1d2a14cc2,66a626ef09d4e21e1a8894ec,67361081a5f97388d5ff123f,2024-11-14_09h00.47.317,Tarea de género gramatical,2024.2.2,MacIntel,100,,,,,,,,,,,,,,,,,,,,,,,1056.2129,1057.1873,a,1,[],[],[],[],[],[],[],0.31,1,1057.1876,1057.6873,,,,,,466,MAS,CON,150,baño,,l,0.31,,1057.6874,1057.6877,-0.837029803,0.101902488,0,0,0,,0,241,241,15,1,,,,
,,,,,,ed84ce718407e4d1d2a14cc2,66a626ef09d4e21e1a8894ec,67361081a5f97388d5ff123f,2024-11-14_09h00.47.317,Tarea de género gramatical,2024.2.2,MacIntel,100,,,,,,,,,,,,,,,,,,,,,,,1057.6901,1058.7081,l,1,[],[],[],[],[],[],[],0.3481,1,1058.7084,1059.2079,,,,,,620,FEM,DIS,150,carta,el,a,0.3481,,1059.2081,1059.2082,-0.837029803,0.101902488,0,0,0,,0,242,242,169,1,,,,
,,,,,,ed84ce718407e4d1d2a14cc2,66a626ef09d4e21e1a8894ec,67361081a5f97388d5ff123f,2024-11-14_09h00.47.317,Tarea de género gramatical,2024.2.2,MacIntel,100,,,,,,,,,,,,,,,,,,,,,,,1059.2108,1060.3475,a,1,[],[],[],[],[],[],[],0.4724,1,1060.3476,1060.8479,,,,,,515,MAS,DIS,150,rayo,la,l,0.4724,,1060.848,1060.8482,-0.837029803,0.101902488,0,0,0,,0,243,243,64,1,,,,
,,,,,,ed84ce718407e4d1d2a14cc2,66a626ef09d4e21e1a8894ec,67361081a5f97388d5ff123f,2024-11-14_09h00.47.317,Tarea de género gramatical,2024.2.2,MacIntel,100,,,,,,,,,,,,,,,,,,,,,,,1060.8507,1061.8283,l,1,[],[],[],[],[],[],[],0.3162,1,1061.8284,1062.3279,,,,,,710,FEM,DIS,150,barra,el,a,0.3162,,1062.328,1062.3282,-0.837029803,0.101902488,0,0,0,,0,244,244,259,1,,,,
,,,,,,ed84ce718407e4d1d2a14cc2,66a626ef09d4e21e1a8894ec,67361081a5f97388d5ff123f,2024-11-14_09h00.47.317,Tarea de género gramatical,2024.2.2,MacIntel,100,,,,,,,,,,,,,,,,,,,,,,,1062.3307,1063.3176,a,1,[],[],[],[],[],[],[],0.3237,1,1063.3178,1063.8182,,,,,,766,MAS,CON,150,cuerpo,,l,0.3237,,1063.8208,1063.8217,-0.837029803,0.101902488,0,0,0,,0,245,245,315,1,,,,
,,,,,,ed84ce718407e4d1d2a14cc2,66a626ef09d4e21e1a8894ec,67361081a5f97388d5ff123f,2024-11-14_09h00.47.317,Tarea de género gramatical,2024.2.2,MacIntel,100,,,,,,,,,,,,,,,,,,,,,,,1063.8223,1064.7964,a,1,[],[],[],[],[],[],[],0.3117,1,1064.7965,1065.2973,,,,,,664,MAS,CON,150,fondo,,l,0.3117,,1065.2975,1065.2976,-0.837029803,0.101902488,0,0,0,,0,246,246,213,1,,,,
,,,,,,ed84ce718407e4d1d2a14cc2,66a626ef09d4e21e1a8894ec,67361081a5f97388d5ff123f,2024-11-14_09h00.47.317,Tarea de género gramatical,2024.2.2,MacIntel,100,,,,,,,,,,,,,,,,,,,,,,,1065.2989,1066.1705,l,1,[],[],[],[],[],[],[],0.2088,1,1066.1705,1066.6675,,,,,,577,FEM,CON,150,cuna,,a,0.2088,,1066.6677,1066.6681,-0.837029803,0.101902488,0,0,0,,0,247,247,126,1,,,,
,,,,,,ed84ce718407e4d1d2a14cc2,66a626ef09d4e21e1a8894ec,67361081a5f97388d5ff123f,2024-11-14_09h00.47.317,Tarea de género gramatical,2024.2.2,MacIntel,100,,,,,,,,,,,,,,,,,,,,,,,1066.6707,1067.6273,a,1,[],[],[],[],[],[],[],0.2914,1,1067.6276,1068.1272,,,,,,599,MAS,DIS,150,nudo,la,l,0.2914,,1068.1273,1068.1273,-0.837029803,0.101902488,0,0,0,,0,248,248,148,1,,,,
,,,,,,ed84ce718407e4d1d2a14cc2,66a626ef09d4e21e1a8894ec,67361081a5f97388d5ff123f,2024-11-14_09h00.47.317,Tarea de género gramatical,2024.2.2,MacIntel,100,,,,,,,,,,,,,,,,,,,,,,,1068.1283,1068.9875,l,1,[],[],[],[],[],[],[],0.192,1,1068.9877,1069.4876,,,,,,674,FEM,DIS,150,arena,el,a,0.192,,1069.4898,1069.4911,-0.837029803,0.101902488,0,0,0,,0,249,249,223,1,,,,
,,,,,,ed84ce718407e4d1d2a14cc2,66a626ef09d4e21e1a8894ec,67361081a5f97388d5ff123f,2024-11-14_09h00.47.317,Tarea de género gramatical,2024.2.2,MacIntel,100,,,,,,,,,,,,,,,,,,,,,,,1069.4921,1070.3986,a,1,[],[],[],[],[],[],[],0.2489,1,1070.3988,1070.8981,,,,,,695,MAS,DIS,150,turno,la,l,0.2489,,1070.8983,1070.8985,-0.837029803,0.101902488,0,0,0,,0,250,250,244,1,,,,
,,,,,,ed84ce718407e4d1d2a14cc2,66a626ef09d4e21e1a8894ec,67361081a5f97388d5ff123f,2024-11-14_09h00.47.317,Tarea de género gramatical,2024.2.2,MacIntel,100,,,,,,,,,,,,,,,,,,,,,,,1070.9009,1071.8669,a,1,[],[],[],[],[],[],[],0.301,1,1071.8671,1072.3673,,,,,,648,MAS,AGR,150,hotel,el,l,0.301,,1072.3673,1072.3675,-0.837029803,0.101902488,0,0,0,,0,251,251,197,1,,,,
,,,,,,ed84ce718407e4d1d2a14cc2,66a626ef09d4e21e1a8894ec,67361081a5f97388d5ff123f,2024-11-14_09h00.47.317,Tarea de género gramatical,2024.2.2,MacIntel,100,,,,,,,,,,,,,,,,,,,,,,,1072.3686,1073.2674,a,1,[],[],[],[],[],[],[],0.2343,1,1073.2676,1073.7682,,,,,,665,MAS,DIS,150,hueso,la,l,0.2343,,1073.7685,1073.769,-0.837029803,0.101902488,0,0,0,,0,252,252,214,1,,,,
,,,,,,ed84ce718407e4d1d2a14cc2,66a626ef09d4e21e1a8894ec,67361081a5f97388d5ff123f,2024-11-14_09h00.47.317,Tarea de género gramatical,2024.2.2,MacIntel,100,,,,,,,,,,,,,,,,,,,,,,,1073.7711,1074.6874,l,1,[],[],[],[],[],[],[],0.2482,1,1074.6874,1075.1873,,,,,,775,FEM,CON,150,tierra,,a,0.2482,,1075.1874,1075.1875,-0.837029803,0.101902488,0,0,0,,0,253,253,324,1,,,,
,,,,,,ed84ce718407e4d1d2a14cc2,66a626ef09d4e21e1a8894ec,67361081a5f97388d5ff123f,2024-11-14_09h00.47.317,Tarea de género gramatical,2024.2.2,MacIntel,100,,,,,,,,,,,,,,,,,,,,,,,1075.1886,1076.0272,a,1,[],[],[],[],[],[],[],0.1723,1,1076.0272,1076.5278,,,,,,863,MAS,DIS,150,diario,la,l,0.1723,,1076.5298,1076.5311,-0.837029803,0.101902488,0,0,0,,0,254,254,412,1,,,,
