counterbalancing_condition,consent_prescreening.block_1/declare_consent,consent_prescreening.block_1/age_years,consent_prescreening.block_1/gender,consent_prescreening.block_1/language_disorder,consent_prescreening.block_1/first_language,PROLIFIC_PID,STUDY_ID,SESSION_ID,date,expName,psychopyVersion,OS,frameRate,check_prescreening_answers.started,check_prescreening_answers.stopped,Instructions.started,Instructions.stopped,instr_done_keyboard.keys,instr_done_touch.x,instr_done_touch.y,instr_done_touch.leftButton,instr_done_touch.midButton,instr_done_touch.rightButton,instr_done_touch.clicked_name,instruction_pages.thisRepN,instruction_pages.thisTrialN,instruction_pages.thisN,instruction_pages.thisIndex,instruction_pages.ran,pageN,phase,instruct_text,has_image,instruct_image,instr_done_keyboard.rt,instr_done_keyboard.duration,presentTrial.started,presentTrial.stopped,response.keys,response.corr,response.rt,response.duration,touch_resp.x,touch_resp.y,touch_resp.leftButton,touch_resp.midButton,touch_resp.rightButton,touch_resp.time,touch_resp.clicked_name,rt,corr,feedback.started,feedback.stopped,practice_trials.thisRepN,practice_trials.thisTrialN,practice_trials.thisN,practice_trials.thisIndex,practice_trials.ran,TrialID,StimulusType,Condition,PrimeDuration,Prime,Flanker,corrAns,Break.started,Break.stopped,break_done_touch.x,break_done_touch.y,break_done_touch.leftButton,break_done_touch.midButton,break_done_touch.rightButton,break_done_keyboard.keys,experiment_trials.thisRepN,experiment_trials.thisTrialN,experiment_trials.thisN,experiment_trials.thisIndex,experiment_trials.ran,break_done_keyboard.rt,break_done_keyboard.duration,End.started,End.stopped
1,"[""over_18"",""comfortable"",""read_info"",""consent_given""]",27,M,"[""none""]","[""spanish""]",edd8ac93b2254abe5ddbfa3a,66a626ef09d4e21e1a8894ec,67360fd80393f6a0a77a7d41,2024-11-14_08h57.44.951,Tarea de género gramatical,2024.2.2,Win32,59.88023952,,,,,,,,,,,,,,,,,,,,,,,,,,,,,,,,,,,,,,,,,,,,,,,,,,,,,,,,,,,,,,,,,,,,,
,,,,,,edd8ac93b2254abe5ddbfa3a,66a626ef09d4e21e1a8894ec,67360fd80393f6a0a77a7d41,2024-11-14_08h57.44.951,Tarea de género gramatical,2024.2.2,Win32,59.88023952,21.7635,21.7636,,,,,,,,,,,,,,,,,,,,,,,,,,,,,,,,,,,,,,,,,,,,,,,,,,,,,,,,,,,,,,,,,,,
,,,,,,edd8ac93b2254abe5ddbfa3a,66a626ef09d4e21e1a8894ec,67360fd80393f6a0a77a7d41,2024-11-14_08h57.44.951,Tarea de género gramatical,2024.2.2,Win32,59.88023952,,,21.7744,82.2807,,0.028004011,-0.388724271,1,0,0,instr_done_button,0,0,0,0,1,1,instructions,"INSTRUCCIONES
Va a realizar una prueba de selección gramatical. Desde el comienzo de la prueba mire siempre al centro de la pantalla. Al cabo de un momento, aparecerán palabras. La tarea consiste en determinar si la palabra del centro (siempre será un sustantivo), pertenece al género masculino o femenino.

Pulse la tecla ESPACIO o toque el botón de abajo para continuar.",0,keyboardresponseMF.png,,,,,,,,,,,,,,,,,,,,,,,,,,,,,,,,,,,,,,,,,,,,,,,,
,,,,,,edd8ac93b2254abe5ddbfa3a,66a626ef09d4e21e1a8894ec,67360fd80393f6a0a77a7d41,2024-11-14_08h57.44.951,Tarea de género gramatical,2024.2.2,Win32,59.88023952,,,82.2822,91.9798,,-0.054388105,-0.406313583,1,0,0,instr_done_button,0,1,1,1,1,2,instructions,"Si su dispositivo tiene teclado, pulse la tecla ""A"" para las palabras en masculino (por ejemplo: ""arroz"") y la tecla ""L"" para las palabras en femenino (por ejemplo: ""mano"").
Pulse la tecla ESPACIO o toque el botón de abajo para continuar.",1,keyboardresponseMF.png,,,,,,,,,,,,,,,,,,,,,,,,,,,,,,,,,,,,,,,,,,,,,,,,
,,,,,,edd8ac93b2254abe5ddbfa3a,66a626ef09d4e21e1a8894ec,67360fd80393f6a0a77a7d41,2024-11-14_08h57.44.951,Tarea de género gramatical,2024.2.2,Win32,59.88023952,,,91.9809,150.1095,space,0.929688867,-0.391501557,0,0,0,,0,2,2,2,1,3,instructions,"Si utiliza un dispositivo sólo táctil, colóquelo en horizontal y utilice los botones de la pantalla. No utilice el ratón.
Pulse la tecla ESPACIO o toque el botón de abajo para continuar.",2,touchresponseMF.png,58.0951,,,,,,,,,,,,,,,,,,,,,,,,,,,,,,,,,,,,,,,,,,,,,,,
,,,,,,edd8ac93b2254abe5ddbfa3a,66a626ef09d4e21e1a8894ec,67360fd80393f6a0a77a7d41,2024-11-14_08h57.44.951,Tarea de género gramatical,2024.2.2,Win32,59.88023952,,,150.1109,155.0258,space,0.929688867,-0.391501557,0,0,0,,0,3,3,3,1,4,instructions,"Es muy importante que responda con la mayor rapidez y precisión posibles, ya que cada cadena de letras sólo estará en pantalla durante un instante. Si no responde en ese tiempo, aparecerá el mensaje ""Muy lento"" y el experimento pasará a la siguiente palabra. Los primeros 15 intentos serán de práctica y habrá dos descansos durante la prueba.
Pulse la tecla ESPACIO o toque el botón de abajo para iniciar la parte de práctica.",0,keyboardresponseMF.png,4.8967,,,,,,,,,,,,,,,,,,,,,,,,,,,,,,,,,,,,,,,,,,,,,,,
,,,,,,edd8ac93b2254abe5ddbfa3a,66a626ef09d4e21e1a8894ec,67360fd80393f6a0a77a7d41,2024-11-14_08h57.44.951,Tarea de género gramatical,2024.2.2,Win32,59.88023952,,,,,,,,,,,,,,,,,,,,,,,,155.0365,156.4758,a,0,0.7728,,[],[],[],[],[],[],[],0.7728,0,156.476,156.9757,0,0,0,5,1,2006,FEM,DIS,150,serie,el,a,,,,,,,,,,,,,,,,,
,,,,,,edd8ac93b2254abe5ddbfa3a,66a626ef09d4e21e1a8894ec,67360fd80393f6a0a77a7d41,2024-11-14_08h57.44.951,Tarea de género gramatical,2024.2.2,Win32,59.88023952,,,,,,,,,,,,,,,,,,,,,,,,156.9767,158.5088,l,0,0.8501,,[],[],[],[],[],[],[],0.8501,0,158.5089,159.0088,0,1,1,12,1,2013,MAS,AGR,150,acero,el,l,,,,,,,,,,,,,,,,,
,,,,,,edd8ac93b2254abe5ddbfa3a,66a626ef09d4e21e1a8894ec,67360fd80393f6a0a77a7d41,2024-11-14_08h57.44.951,Tarea de género gramatical,2024.2.2,Win32,59.88023952,,,,,,,,,,,,,,,,,,,,,,,,159.0095,160.159,l,0,0.4795,,[],[],[],[],[],[],[],0.4795,0,160.159,160.6587,0,2,2,14,1,2015,MAS,DIS,150,robot,la,l,,,,,,,,,,,,,,,,,
,,,,,,edd8ac93b2254abe5ddbfa3a,66a626ef09d4e21e1a8894ec,67360fd80393f6a0a77a7d41,2024-11-14_08h57.44.951,Tarea de género gramatical,2024.2.2,Win32,59.88023952,,,,,,,,,,,,,,,,,,,,,,,,160.6594,161.792,l,1,0.4555,,[],[],[],[],[],[],[],0.4555,1,161.7926,162.292,0,3,3,3,1,2004,FEM,AGR,150,venta,la,a,,,,,,,,,,,,,,,,,
,,,,,,edd8ac93b2254abe5ddbfa3a,66a626ef09d4e21e1a8894ec,67360fd80393f6a0a77a7d41,2024-11-14_08h57.44.951,Tarea de género gramatical,2024.2.2,Win32,59.88023952,,,,,,,,,,,,,,,,,,,,,,,,162.2928,163.8086,a,1,0.8371,,[],[],[],[],[],[],[],0.8371,1,163.8086,164.3085,0,4,4,8,1,2009,MAS,DIS,150,puerto,la,l,,,,,,,,,,,,,,,,,
,,,,,,edd8ac93b2254abe5ddbfa3a,66a626ef09d4e21e1a8894ec,67360fd80393f6a0a77a7d41,2024-11-14_08h57.44.951,Tarea de género gramatical,2024.2.2,Win32,59.88023952,,,,,,,,,,,,,,,,,,,,,,,,164.3092,165.5251,a,1,0.5429,,[],[],[],[],[],[],[],0.5429,1,165.5251,166.025,0,5,5,13,1,2014,MAS,CON,150,siglo,,l,,,,,,,,,,,,,,,,,
,,,,,,edd8ac93b2254abe5ddbfa3a,66a626ef09d4e21e1a8894ec,67360fd80393f6a0a77a7d41,2024-11-14_08h57.44.951,Tarea de género gramatical,2024.2.2,Win32,59.88023952,,,,,,,,,,,,,,,,,,,,,,,,166.0257,167.1084,l,0,0.4131,,[],[],[],[],[],[],[],0.4131,0,167.1087,167.6084,0,6,6,11,1,2012,MAS,DIS,150,clima,la,l,,,,,,,,,,,,,,,,,
,,,,,,edd8ac93b2254abe5ddbfa3a,66a626ef09d4e21e1a8894ec,67360fd80393f6a0a77a7d41,2024-11-14_08h57.44.951,Tarea de género gramatical,2024.2.2,Win32,59.88023952,,,,,,,,,,,,,,,,,,,,,,,,167.6089,168.7915,l,1,0.5132,,[],[],[],[],[],[],[],0.5132,1,168.7919,169.2915,0,7,7,7,1,2008,FEM,CON,150,siesta,,a,,,,,,,,,,,,,,,,,
,,,,,,edd8ac93b2254abe5ddbfa3a,66a626ef09d4e21e1a8894ec,67360fd80393f6a0a77a7d41,2024-11-14_08h57.44.951,Tarea de género gramatical,2024.2.2,Win32,59.88023952,,,,,,,,,,,,,,,,,,,,,,,,169.292,170.9247,a,1,0.9578,,[],[],[],[],[],[],[],0.9578,1,170.9248,171.4247,0,8,8,10,1,2011,MAS,CON,150,canal,,l,,,,,,,,,,,,,,,,,
,,,,,,edd8ac93b2254abe5ddbfa3a,66a626ef09d4e21e1a8894ec,67360fd80393f6a0a77a7d41,2024-11-14_08h57.44.951,Tarea de género gramatical,2024.2.2,Win32,59.88023952,,,,,,,,,,,,,,,,,,,,,,,,171.4252,172.6579,a,0,0.5531,,[],[],[],[],[],[],[],0.5531,0,172.6583,173.1579,0,9,9,0,1,2001,FEM,AGR,150,nuca,la,a,,,,,,,,,,,,,,,,,
,,,,,,edd8ac93b2254abe5ddbfa3a,66a626ef09d4e21e1a8894ec,67360fd80393f6a0a77a7d41,2024-11-14_08h57.44.951,Tarea de género gramatical,2024.2.2,Win32,59.88023952,,,,,,,,,,,,,,,,,,,,,,,,173.1584,174.3078,a,0,0.4672,,[],[],[],[],[],[],[],0.4672,0,174.3078,174.8078,0,10,10,1,1,2002,FEM,CON,150,pala,,a,,,,,,,,,,,,,,,,,
,,,,,,edd8ac93b2254abe5ddbfa3a,66a626ef09d4e21e1a8894ec,67360fd80393f6a0a77a7d41,2024-11-14_08h57.44.951,Tarea de género gramatical,2024.2.2,Win32,59.88023952,,,,,,,,,,,,,,,,,,,,,,,,174.8083,175.7411,l,1,0.2546,,[],[],[],[],[],[],[],0.2546,1,175.7414,176.2411,0,11,11,4,1,2005,FEM,CON,150,placa,,a,,,,,,,,,,,,,,,,,
,,,,,,edd8ac93b2254abe5ddbfa3a,66a626ef09d4e21e1a8894ec,67360fd80393f6a0a77a7d41,2024-11-14_08h57.44.951,Tarea de género gramatical,2024.2.2,Win32,59.88023952,,,,,,,,,,,,,,,,,,,,,,,,176.2416,177.3077,a,1,0.3915,,[],[],[],[],[],[],[],0.3915,1,177.3077,177.8076,0,12,12,9,1,2010,MAS,AGR,150,vecino,el,l,,,,,,,,,,,,,,,,,
,,,,,,edd8ac93b2254abe5ddbfa3a,66a626ef09d4e21e1a8894ec,67360fd80393f6a0a77a7d41,2024-11-14_08h57.44.951,Tarea de género gramatical,2024.2.2,Win32,59.88023952,,,,,,,,,,,,,,,,,,,,,,,,177.8082,178.9576,a,0,0.4694,,[],[],[],[],[],[],[],0.4694,0,178.9579,179.4574,0,13,13,2,1,2003,FEM,DIS,150,daga,el,a,,,,,,,,,,,,,,,,,
,,,,,,edd8ac93b2254abe5ddbfa3a,66a626ef09d4e21e1a8894ec,67360fd80393f6a0a77a7d41,2024-11-14_08h57.44.951,Tarea de género gramatical,2024.2.2,Win32,59.88023952,,,,,,,,,,,,,,,,,,,,,,,,179.4581,180.6408,a,0,0.5007,,[],[],[],[],[],[],[],0.5007,0,180.6408,181.1407,0,14,14,6,1,2007,FEM,AGR,150,navaja,la,a,,,,,,,,,,,,,,,,,
,,,,,,edd8ac93b2254abe5ddbfa3a,66a626ef09d4e21e1a8894ec,67360fd80393f6a0a77a7d41,2024-11-14_08h57.44.951,Tarea de género gramatical,2024.2.2,Win32,59.88023952,,,185.2085,214.8219,space,0.929688867,-0.391501557,0,0,0,,,,,,,,,,,,29.6071,,214.841,216.0718,a,1,0.5613,,[],[],[],[],[],[],[],0.5613,1,216.0723,216.5718,,,,,,676,MAS,CON,150,color,,l,216.572,216.5739,0.929688867,-0.391501557,0,0,0,,0,0,0,225,1,,,,
,,,,,,edd8ac93b2254abe5ddbfa3a,66a626ef09d4e21e1a8894ec,67360fd80393f6a0a77a7d41,2024-11-14_08h57.44.951,Tarea de género gramatical,2024.2.2,Win32,59.88023952,,,,,,,,,,,,,,,,,,,,,,,,216.5744,218.0217,l,1,0.7724,,[],[],[],[],[],[],[],0.7724,1,218.0218,218.5217,,,,,,752,FEM,DIS,150,cabeza,el,a,218.5218,218.5219,0.929688867,-0.391501557,0,0,0,,0,1,1,301,1,,,,
,,,,,,edd8ac93b2254abe5ddbfa3a,66a626ef09d4e21e1a8894ec,67360fd80393f6a0a77a7d41,2024-11-14_08h57.44.951,Tarea de género gramatical,2024.2.2,Win32,59.88023952,,,,,,,,,,,,,,,,,,,,,,,,218.5224,219.7049,a,0,0.5106,,[],[],[],[],[],[],[],0.5106,0,219.7053,220.2049,,,,,,614,FEM,DIS,150,novia,el,a,220.2056,220.2059,0.929688867,-0.391501557,0,0,0,,0,2,2,163,1,,,,
,,,,,,edd8ac93b2254abe5ddbfa3a,66a626ef09d4e21e1a8894ec,67360fd80393f6a0a77a7d41,2024-11-14_08h57.44.951,Tarea de género gramatical,2024.2.2,Win32,59.88023952,,,,,,,,,,,,,,,,,,,,,,,,220.2062,221.2714,a,0,0.3962,,[],[],[],[],[],[],[],0.3962,0,221.2715,221.7714,,,,,,549,FEM,AGR,150,fase,la,a,221.7715,221.7715,0.929688867,-0.391501557,0,0,0,,0,3,3,98,1,,,,
,,,,,,edd8ac93b2254abe5ddbfa3a,66a626ef09d4e21e1a8894ec,67360fd80393f6a0a77a7d41,2024-11-14_08h57.44.951,Tarea de género gramatical,2024.2.2,Win32,59.88023952,,,,,,,,,,,,,,,,,,,,,,,,221.772,223.0547,l,1,0.6037,,[],[],[],[],[],[],[],0.6037,1,223.055,223.5547,,,,,,807,FEM,AGR,150,lengua,la,a,223.5547,223.5548,0.929688867,-0.391501557,0,0,0,,0,4,4,356,1,,,,
,,,,,,edd8ac93b2254abe5ddbfa3a,66a626ef09d4e21e1a8894ec,67360fd80393f6a0a77a7d41,2024-11-14_08h57.44.951,Tarea de género gramatical,2024.2.2,Win32,59.88023952,,,,,,,,,,,,,,,,,,,,,,,,223.5552,224.8379,a,1,0.6112,,[],[],[],[],[],[],[],0.6112,1,224.8379,225.3379,,,,,,636,MAS,AGR,150,error,el,l,225.338,225.3381,0.929688867,-0.391501557,0,0,0,,0,5,5,185,1,,,,
,,,,,,edd8ac93b2254abe5ddbfa3a,66a626ef09d4e21e1a8894ec,67360fd80393f6a0a77a7d41,2024-11-14_08h57.44.951,Tarea de género gramatical,2024.2.2,Win32,59.88023952,,,,,,,,,,,,,,,,,,,,,,,,225.3386,226.6045,l,1,0.5872,,[],[],[],[],[],[],[],0.5872,1,226.6045,227.1045,,,,,,879,FEM,AGR,150,fianza,la,a,227.1052,227.1056,0.929688867,-0.391501557,0,0,0,,0,6,6,428,1,,,,
,,,,,,edd8ac93b2254abe5ddbfa3a,66a626ef09d4e21e1a8894ec,67360fd80393f6a0a77a7d41,2024-11-14_08h57.44.951,Tarea de género gramatical,2024.2.2,Win32,59.88023952,,,,,,,,,,,,,,,,,,,,,,,,227.1058,228.1877,a,1,0.4074,,[],[],[],[],[],[],[],0.4074,1,228.1878,228.6877,,,,,,761,MAS,DIS,150,camino,la,l,228.6878,228.6878,0.929688867,-0.391501557,0,0,0,,0,7,7,310,1,,,,
,,,,,,edd8ac93b2254abe5ddbfa3a,66a626ef09d4e21e1a8894ec,67360fd80393f6a0a77a7d41,2024-11-14_08h57.44.951,Tarea de género gramatical,2024.2.2,Win32,59.88023952,,,,,,,,,,,,,,,,,,,,,,,,228.6883,229.8043,l,1,0.4417,,[],[],[],[],[],[],[],0.4417,1,229.8043,230.3043,,,,,,709,FEM,CON,150,prima,,a,230.3044,230.3044,0.929688867,-0.391501557,0,0,0,,0,8,8,258,1,,,,
,,,,,,edd8ac93b2254abe5ddbfa3a,66a626ef09d4e21e1a8894ec,67360fd80393f6a0a77a7d41,2024-11-14_08h57.44.951,Tarea de género gramatical,2024.2.2,Win32,59.88023952,,,,,,,,,,,,,,,,,,,,,,,,230.3049,231.371,a,0,0.3865,,[],[],[],[],[],[],[],0.3865,0,231.3715,231.8708,,,,,,601,FEM,CON,150,noche,,a,231.8708,231.8709,0.929688867,-0.391501557,0,0,0,,0,9,9,150,1,,,,
,,,,,,edd8ac93b2254abe5ddbfa3a,66a626ef09d4e21e1a8894ec,67360fd80393f6a0a77a7d41,2024-11-14_08h57.44.951,Tarea de género gramatical,2024.2.2,Win32,59.88023952,,,,,,,,,,,,,,,,,,,,,,,,231.8717,233.1042,l,1,0.5594,,[],[],[],[],[],[],[],0.5594,1,233.1046,233.6041,,,,,,537,FEM,AGR,150,risa,la,a,233.6041,233.6042,0.929688867,-0.391501557,0,0,0,,0,10,10,86,1,,,,
,,,,,,edd8ac93b2254abe5ddbfa3a,66a626ef09d4e21e1a8894ec,67360fd80393f6a0a77a7d41,2024-11-14_08h57.44.951,Tarea de género gramatical,2024.2.2,Win32,59.88023952,,,,,,,,,,,,,,,,,,,,,,,,233.6048,234.704,a,1,0.4167,,[],[],[],[],[],[],[],0.4167,1,234.704,235.2039,,,,,,580,MAS,CON,150,yate,,l,235.2046,235.205,0.929688867,-0.391501557,0,0,0,,0,11,11,129,1,,,,
,,,,,,edd8ac93b2254abe5ddbfa3a,66a626ef09d4e21e1a8894ec,67360fd80393f6a0a77a7d41,2024-11-14_08h57.44.951,Tarea de género gramatical,2024.2.2,Win32,59.88023952,,,,,,,,,,,,,,,,,,,,,,,,235.2053,236.8873,a,1,1.0091,,[],[],[],[],[],[],[],1.0091,1,236.8874,237.3873,,,,,,840,MAS,AGR,150,rostro,el,l,237.3873,237.3874,0.929688867,-0.391501557,0,0,0,,0,12,12,389,1,,,,
,,,,,,edd8ac93b2254abe5ddbfa3a,66a626ef09d4e21e1a8894ec,67360fd80393f6a0a77a7d41,2024-11-14_08h57.44.951,Tarea de género gramatical,2024.2.2,Win32,59.88023952,,,,,,,,,,,,,,,,,,,,,,,,237.3878,238.6038,l,1,0.537,,[],[],[],[],[],[],[],0.537,1,238.6039,239.1037,,,,,,627,FEM,AGR,150,broma,la,a,239.1037,239.1038,0.929688867,-0.391501557,0,0,0,,0,13,13,176,1,,,,
,,,,,,edd8ac93b2254abe5ddbfa3a,66a626ef09d4e21e1a8894ec,67360fd80393f6a0a77a7d41,2024-11-14_08h57.44.951,Tarea de género gramatical,2024.2.2,Win32,59.88023952,,,,,,,,,,,,,,,,,,,,,,,,239.1043,240.2536,l,1,0.4754,,[],[],[],[],[],[],[],0.4754,1,240.2536,240.7536,,,,,,518,FEM,DIS,150,pata,el,a,240.7536,240.7536,0.929688867,-0.391501557,0,0,0,,0,14,14,67,1,,,,
,,,,,,edd8ac93b2254abe5ddbfa3a,66a626ef09d4e21e1a8894ec,67360fd80393f6a0a77a7d41,2024-11-14_08h57.44.951,Tarea de género gramatical,2024.2.2,Win32,59.88023952,,,,,,,,,,,,,,,,,,,,,,,,240.7541,241.7869,a,1,0.35,,[],[],[],[],[],[],[],0.35,1,241.7869,242.2868,,,,,,822,MAS,AGR,150,delito,el,l,242.2874,242.2878,0.929688867,-0.391501557,0,0,0,,0,15,15,371,1,,,,
,,,,,,edd8ac93b2254abe5ddbfa3a,66a626ef09d4e21e1a8894ec,67360fd80393f6a0a77a7d41,2024-11-14_08h57.44.951,Tarea de género gramatical,2024.2.2,Win32,59.88023952,,,,,,,,,,,,,,,,,,,,,,,,242.288,243.4367,l,1,0.4795,,[],[],[],[],[],[],[],0.4795,1,243.4368,243.9367,,,,,,471,FEM,AGR,150,boca,la,a,243.9367,243.9368,0.929688867,-0.391501557,0,0,0,,0,16,16,20,1,,,,
,,,,,,edd8ac93b2254abe5ddbfa3a,66a626ef09d4e21e1a8894ec,67360fd80393f6a0a77a7d41,2024-11-14_08h57.44.951,Tarea de género gramatical,2024.2.2,Win32,59.88023952,,,,,,,,,,,,,,,,,,,,,,,,243.9372,245.27,a,1,0.6646,,[],[],[],[],[],[],[],0.6646,1,245.2701,245.7699,,,,,,556,MAS,CON,150,test,,l,245.77,245.77,0.929688867,-0.391501557,0,0,0,,0,17,17,105,1,,,,
,,,,,,edd8ac93b2254abe5ddbfa3a,66a626ef09d4e21e1a8894ec,67360fd80393f6a0a77a7d41,2024-11-14_08h57.44.951,Tarea de género gramatical,2024.2.2,Win32,59.88023952,,,,,,,,,,,,,,,,,,,,,,,,245.7705,247.0532,l,1,0.6083,,[],[],[],[],[],[],[],0.6083,1,247.0532,247.5532,,,,,,733,FEM,CON,150,pluma,,a,247.5532,247.5532,0.929688867,-0.391501557,0,0,0,,0,18,18,282,1,,,,
,,,,,,edd8ac93b2254abe5ddbfa3a,66a626ef09d4e21e1a8894ec,67360fd80393f6a0a77a7d41,2024-11-14_08h57.44.951,Tarea de género gramatical,2024.2.2,Win32,59.88023952,,,,,,,,,,,,,,,,,,,,,,,,247.5537,248.8197,l,1,0.5839,,[],[],[],[],[],[],[],0.5839,1,248.8198,249.3196,,,,,,805,FEM,CON,150,mirada,,a,249.3197,249.3198,0.929688867,-0.391501557,0,0,0,,0,19,19,354,1,,,,
,,,,,,edd8ac93b2254abe5ddbfa3a,66a626ef09d4e21e1a8894ec,67360fd80393f6a0a77a7d41,2024-11-14_08h57.44.951,Tarea de género gramatical,2024.2.2,Win32,59.88023952,,,,,,,,,,,,,,,,,,,,,,,,249.3204,250.4363,a,1,0.4475,,[],[],[],[],[],[],[],0.4475,1,250.4363,250.9362,,,,,,876,MAS,AGR,150,pánico,el,l,250.9369,250.9372,0.929688867,-0.391501557,0,0,0,,0,20,20,425,1,,,,
,,,,,,edd8ac93b2254abe5ddbfa3a,66a626ef09d4e21e1a8894ec,67360fd80393f6a0a77a7d41,2024-11-14_08h57.44.951,Tarea de género gramatical,2024.2.2,Win32,59.88023952,,,,,,,,,,,,,,,,,,,,,,,,250.9374,252.0862,a,0,0.4729,,[],[],[],[],[],[],[],0.4729,0,252.0866,252.5861,,,,,,847,FEM,CON,150,cuerda,,a,252.5861,252.5862,0.929688867,-0.391501557,0,0,0,,0,21,21,396,1,,,,
,,,,,,edd8ac93b2254abe5ddbfa3a,66a626ef09d4e21e1a8894ec,67360fd80393f6a0a77a7d41,2024-11-14_08h57.44.951,Tarea de género gramatical,2024.2.2,Win32,59.88023952,,,,,,,,,,,,,,,,,,,,,,,,252.5867,253.9361,a,1,0.6742,,[],[],[],[],[],[],[],0.6742,1,253.9364,254.436,,,,,,828,MAS,AGR,150,pastel,el,l,254.4361,254.4361,0.929688867,-0.391501557,0,0,0,,0,22,22,377,1,,,,
,,,,,,edd8ac93b2254abe5ddbfa3a,66a626ef09d4e21e1a8894ec,67360fd80393f6a0a77a7d41,2024-11-14_08h57.44.951,Tarea de género gramatical,2024.2.2,Win32,59.88023952,,,,,,,,,,,,,,,,,,,,,,,,254.4365,255.5026,l,1,0.3844,,[],[],[],[],[],[],[],0.3844,1,255.5027,256.0026,,,,,,865,FEM,CON,150,cabina,,a,256.0026,256.0026,0.929688867,-0.391501557,0,0,0,,0,23,23,414,1,,,,
,,,,,,edd8ac93b2254abe5ddbfa3a,66a626ef09d4e21e1a8894ec,67360fd80393f6a0a77a7d41,2024-11-14_08h57.44.951,Tarea de género gramatical,2024.2.2,Win32,59.88023952,,,,,,,,,,,,,,,,,,,,,,,,256.0031,257.0525,a,1,0.3746,,[],[],[],[],[],[],[],0.3746,1,257.0526,257.5525,,,,,,665,MAS,DIS,150,hueso,la,l,257.5532,257.5535,0.929688867,-0.391501557,0,0,0,,0,24,24,214,1,,,,
,,,,,,edd8ac93b2254abe5ddbfa3a,66a626ef09d4e21e1a8894ec,67360fd80393f6a0a77a7d41,2024-11-14_08h57.44.951,Tarea de género gramatical,2024.2.2,Win32,59.88023952,,,,,,,,,,,,,,,,,,,,,,,,257.5538,258.6691,a,1,0.4479,,[],[],[],[],[],[],[],0.4479,1,258.6692,259.1691,,,,,,515,MAS,DIS,150,rayo,la,l,259.1691,259.1692,0.929688867,-0.391501557,0,0,0,,0,25,25,64,1,,,,
,,,,,,edd8ac93b2254abe5ddbfa3a,66a626ef09d4e21e1a8894ec,67360fd80393f6a0a77a7d41,2024-11-14_08h57.44.951,Tarea de género gramatical,2024.2.2,Win32,59.88023952,,,,,,,,,,,,,,,,,,,,,,,,259.1696,260.319,a,1,0.4777,,[],[],[],[],[],[],[],0.4777,1,260.319,260.819,,,,,,527,MAS,DIS,150,pico,la,l,260.819,260.8191,0.929688867,-0.391501557,0,0,0,,0,26,26,76,1,,,,
,,,,,,edd8ac93b2254abe5ddbfa3a,66a626ef09d4e21e1a8894ec,67360fd80393f6a0a77a7d41,2024-11-14_08h57.44.951,Tarea de género gramatical,2024.2.2,Win32,59.88023952,,,,,,,,,,,,,,,,,,,,,,,,260.8195,261.8356,a,1,0.3387,,[],[],[],[],[],[],[],0.3387,1,261.8356,262.3355,,,,,,562,MAS,CON,150,reto,,l,262.3355,262.3356,0.929688867,-0.391501557,0,0,0,,0,27,27,111,1,,,,
,,,,,,edd8ac93b2254abe5ddbfa3a,66a626ef09d4e21e1a8894ec,67360fd80393f6a0a77a7d41,2024-11-14_08h57.44.951,Tarea de género gramatical,2024.2.2,Win32,59.88023952,,,,,,,,,,,,,,,,,,,,,,,,262.3361,263.4355,l,1,0.4206,,[],[],[],[],[],[],[],0.4206,1,263.4355,263.9354,,,,,,669,FEM,AGR,150,costa,la,a,263.9355,263.9355,0.929688867,-0.391501557,0,0,0,,0,28,28,218,1,,,,
,,,,,,edd8ac93b2254abe5ddbfa3a,66a626ef09d4e21e1a8894ec,67360fd80393f6a0a77a7d41,2024-11-14_08h57.44.951,Tarea de género gramatical,2024.2.2,Win32,59.88023952,,,,,,,,,,,,,,,,,,,,,,,,263.936,265.0354,a,1,0.4239,,[],[],[],[],[],[],[],0.4239,1,265.0354,265.5354,,,,,,778,MAS,CON,150,asunto,,l,265.5361,265.5363,0.929688867,-0.391501557,0,0,0,,0,29,29,327,1,,,,
,,,,,,edd8ac93b2254abe5ddbfa3a,66a626ef09d4e21e1a8894ec,67360fd80393f6a0a77a7d41,2024-11-14_08h57.44.951,Tarea de género gramatical,2024.2.2,Win32,59.88023952,,,,,,,,,,,,,,,,,,,,,,,,265.5366,266.5687,l,1,0.3598,,[],[],[],[],[],[],[],0.3598,1,266.5687,267.0687,,,,,,615,FEM,AGR,150,amiga,la,a,267.0687,267.0688,0.929688867,-0.391501557,0,0,0,,0,30,30,164,1,,,,
,,,,,,edd8ac93b2254abe5ddbfa3a,66a626ef09d4e21e1a8894ec,67360fd80393f6a0a77a7d41,2024-11-14_08h57.44.951,Tarea de género gramatical,2024.2.2,Win32,59.88023952,,,,,,,,,,,,,,,,,,,,,,,,267.0692,268.1185,a,0,0.3658,,[],[],[],[],[],[],[],0.3658,0,268.1188,268.6185,,,,,,781,FEM,CON,150,cárcel,,a,268.6185,268.6186,0.929688867,-0.391501557,0,0,0,,0,31,31,330,1,,,,
,,,,,,edd8ac93b2254abe5ddbfa3a,66a626ef09d4e21e1a8894ec,67360fd80393f6a0a77a7d41,2024-11-14_08h57.44.951,Tarea de género gramatical,2024.2.2,Win32,59.88023952,,,,,,,,,,,,,,,,,,,,,,,,268.619,269.635,a,1,0.3408,,[],[],[],[],[],[],[],0.3408,1,269.6354,270.135,,,,,,617,MAS,DIS,150,juego,la,l,270.135,270.1351,0.929688867,-0.391501557,0,0,0,,0,32,32,166,1,,,,
,,,,,,edd8ac93b2254abe5ddbfa3a,66a626ef09d4e21e1a8894ec,67360fd80393f6a0a77a7d41,2024-11-14_08h57.44.951,Tarea de género gramatical,2024.2.2,Win32,59.88023952,,,,,,,,,,,,,,,,,,,,,,,,270.1356,271.2016,l,1,0.3849,,[],[],[],[],[],[],[],0.3849,1,271.2017,271.7016,,,,,,583,FEM,CON,150,joya,,a,271.7023,271.7026,0.929688867,-0.391501557,0,0,0,,0,33,33,132,1,,,,
,,,,,,edd8ac93b2254abe5ddbfa3a,66a626ef09d4e21e1a8894ec,67360fd80393f6a0a77a7d41,2024-11-14_08h57.44.951,Tarea de género gramatical,2024.2.2,Win32,59.88023952,,,,,,,,,,,,,,,,,,,,,,,,271.703,272.6684,a,0,0.2919,,[],[],[],[],[],[],[],0.2919,0,272.6689,273.1682,,,,,,463,FEM,CON,150,hija,,a,273.1682,273.1683,0.929688867,-0.391501557,0,0,0,,0,34,34,12,1,,,,
,,,,,,edd8ac93b2254abe5ddbfa3a,66a626ef09d4e21e1a8894ec,67360fd80393f6a0a77a7d41,2024-11-14_08h57.44.951,Tarea de género gramatical,2024.2.2,Win32,59.88023952,,,,,,,,,,,,,,,,,,,,,,,,273.1687,274.2014,a,1,0.3501,,[],[],[],[],[],[],[],0.3501,1,274.2018,274.7015,,,,,,454,MAS,CON,150,hijo,,l,274.7015,274.7015,0.929688867,-0.391501557,0,0,0,,0,35,35,3,1,,,,
,,,,,,edd8ac93b2254abe5ddbfa3a,66a626ef09d4e21e1a8894ec,67360fd80393f6a0a77a7d41,2024-11-14_08h57.44.951,Tarea de género gramatical,2024.2.2,Win32,59.88023952,,,,,,,,,,,,,,,,,,,,,,,,274.7019,275.9014,l,1,0.5262,,[],[],[],[],[],[],[],0.5262,1,275.9015,276.4013,,,,,,620,FEM,DIS,150,carta,el,a,276.4013,276.4014,0.929688867,-0.391501557,0,0,0,,0,36,36,169,1,,,,
,,,,,,edd8ac93b2254abe5ddbfa3a,66a626ef09d4e21e1a8894ec,67360fd80393f6a0a77a7d41,2024-11-14_08h57.44.951,Tarea de género gramatical,2024.2.2,Win32,59.88023952,,,,,,,,,,,,,,,,,,,,,,,,276.4018,277.8679,a,1,0.7978,,[],[],[],[],[],[],[],0.7978,1,277.868,278.368,,,,,,504,MAS,AGR,150,humo,el,l,278.368,278.368,0.929688867,-0.391501557,0,0,0,,0,37,37,53,1,,,,
,,,,,,edd8ac93b2254abe5ddbfa3a,66a626ef09d4e21e1a8894ec,67360fd80393f6a0a77a7d41,2024-11-14_08h57.44.951,Tarea de género gramatical,2024.2.2,Win32,59.88023952,,,,,,,,,,,,,,,,,,,,,,,,278.3685,279.4011,l,1,0.351,,[],[],[],[],[],[],[],0.351,1,279.4011,279.901,,,,,,554,FEM,DIS,150,vela,el,a,279.9017,279.9021,0.929688867,-0.391501557,0,0,0,,0,38,38,103,1,,,,
,,,,,,edd8ac93b2254abe5ddbfa3a,66a626ef09d4e21e1a8894ec,67360fd80393f6a0a77a7d41,2024-11-14_08h57.44.951,Tarea de género gramatical,2024.2.2,Win32,59.88023952,,,,,,,,,,,,,,,,,,,,,,,,279.9025,280.8344,a,1,0.2642,,[],[],[],[],[],[],[],0.2642,1,280.8344,281.3343,,,,,,689,MAS,DIS,150,reloj,la,l,281.3344,281.3344,0.929688867,-0.391501557,0,0,0,,0,39,39,238,1,,,,
,,,,,,edd8ac93b2254abe5ddbfa3a,66a626ef09d4e21e1a8894ec,67360fd80393f6a0a77a7d41,2024-11-14_08h57.44.951,Tarea de género gramatical,2024.2.2,Win32,59.88023952,,,,,,,,,,,,,,,,,,,,,,,,281.3349,282.3176,l,0,0.308,,[],[],[],[],[],[],[],0.308,0,282.3179,282.8176,,,,,,456,MAS,AGR,150,lado,el,l,282.8176,282.8177,0.929688867,-0.391501557,0,0,0,,0,40,40,5,1,,,,
,,,,,,edd8ac93b2254abe5ddbfa3a,66a626ef09d4e21e1a8894ec,67360fd80393f6a0a77a7d41,2024-11-14_08h57.44.951,Tarea de género gramatical,2024.2.2,Win32,59.88023952,,,,,,,,,,,,,,,,,,,,,,,,282.8181,283.8341,a,0,0.3375,,[],[],[],[],[],[],[],0.3375,0,283.8342,284.3343,,,,,,746,FEM,DIS,150,feria,el,a,284.3343,284.3344,0.929688867,-0.391501557,0,0,0,,0,41,41,295,1,,,,
,,,,,,edd8ac93b2254abe5ddbfa3a,66a626ef09d4e21e1a8894ec,67360fd80393f6a0a77a7d41,2024-11-14_08h57.44.951,Tarea de género gramatical,2024.2.2,Win32,59.88023952,,,,,,,,,,,,,,,,,,,,,,,,284.3348,285.5674,l,1,0.5509,,[],[],[],[],[],[],[],0.5509,1,285.5677,286.0674,,,,,,825,FEM,AGR,150,cadena,la,a,286.0678,286.0681,0.929688867,-0.391501557,0,0,0,,0,42,42,374,1,,,,
,,,,,,edd8ac93b2254abe5ddbfa3a,66a626ef09d4e21e1a8894ec,67360fd80393f6a0a77a7d41,2024-11-14_08h57.44.951,Tarea de género gramatical,2024.2.2,Win32,59.88023952,,,,,,,,,,,,,,,,,,,,,,,,286.0684,287.2673,a,1,0.5216,,[],[],[],[],[],[],[],0.5216,1,287.2674,287.7673,,,,,,875,MAS,DIS,150,chiste,la,l,287.7673,287.7673,0.929688867,-0.391501557,0,0,0,,0,43,43,424,1,,,,
,,,,,,edd8ac93b2254abe5ddbfa3a,66a626ef09d4e21e1a8894ec,67360fd80393f6a0a77a7d41,2024-11-14_08h57.44.951,Tarea de género gramatical,2024.2.2,Win32,59.88023952,,,,,,,,,,,,,,,,,,,,,,,,287.7678,288.8005,l,1,0.3598,,[],[],[],[],[],[],[],0.3598,1,288.8005,289.3007,,,,,,517,FEM,CON,150,miel,,a,289.3007,289.3008,0.929688867,-0.391501557,0,0,0,,0,44,44,66,1,,,,
,,,,,,edd8ac93b2254abe5ddbfa3a,66a626ef09d4e21e1a8894ec,67360fd80393f6a0a77a7d41,2024-11-14_08h57.44.951,Tarea de género gramatical,2024.2.2,Win32,59.88023952,,,,,,,,,,,,,,,,,,,,,,,,289.3013,290.4004,l,0,0.4244,,[],[],[],[],[],[],[],0.4244,0,290.4008,290.9003,,,,,,844,MAS,CON,150,examen,,l,290.9004,290.9005,0.929688867,-0.391501557,0,0,0,,0,45,45,393,1,,,,
,,,,,,edd8ac93b2254abe5ddbfa3a,66a626ef09d4e21e1a8894ec,67360fd80393f6a0a77a7d41,2024-11-14_08h57.44.951,Tarea de género gramatical,2024.2.2,Win32,59.88023952,,,,,,,,,,,,,,,,,,,,,,,,290.9009,292.1003,l,1,0.5269,,[],[],[],[],[],[],[],0.5269,1,292.1007,292.6003,,,,,,493,FEM,CON,150,nena,,a,292.6003,292.6004,0.929688867,-0.391501557,0,0,0,,0,46,46,42,1,,,,
,,,,,,edd8ac93b2254abe5ddbfa3a,66a626ef09d4e21e1a8894ec,67360fd80393f6a0a77a7d41,2024-11-14_08h57.44.951,Tarea de género gramatical,2024.2.2,Win32,59.88023952,,,,,,,,,,,,,,,,,,,,,,,,292.6008,293.5669,a,1,0.2918,,[],[],[],[],[],[],[],0.2918,1,293.5669,294.0669,,,,,,611,MAS,DIS,150,chico,la,l,294.0674,294.0678,0.929688867,-0.391501557,0,0,0,,0,47,47,160,1,,,,
,,,,,,edd8ac93b2254abe5ddbfa3a,66a626ef09d4e21e1a8894ec,67360fd80393f6a0a77a7d41,2024-11-14_08h57.44.951,Tarea de género gramatical,2024.2.2,Win32,59.88023952,,,,,,,,,,,,,,,,,,,,,,,,294.068,295.1168,a,1,0.3673,,[],[],[],[],[],[],[],0.3673,1,295.1168,295.6168,,,,,,510,MAS,AGR,150,tono,el,l,295.6168,295.6168,0.929688867,-0.391501557,0,0,0,,0,48,48,59,1,,,,
,,,,,,edd8ac93b2254abe5ddbfa3a,66a626ef09d4e21e1a8894ec,67360fd80393f6a0a77a7d41,2024-11-14_08h57.44.951,Tarea de género gramatical,2024.2.2,Win32,59.88023952,,,,,,,,,,,,,,,,,,,,,,,,295.6172,296.6001,a,0,0.3114,,[],[],[],[],[],[],[],0.3114,0,296.6005,297.1,,,,,,728,FEM,DIS,150,presa,el,a,297.1,297.1001,0.929688867,-0.391501557,0,0,0,,0,49,49,277,1,,,,
,,,,,,edd8ac93b2254abe5ddbfa3a,66a626ef09d4e21e1a8894ec,67360fd80393f6a0a77a7d41,2024-11-14_08h57.44.951,Tarea de género gramatical,2024.2.2,Win32,59.88023952,,,,,,,,,,,,,,,,,,,,,,,,297.1006,298.1333,a,1,0.351,,[],[],[],[],[],[],[],0.351,1,298.1336,298.6334,,,,,,894,MAS,AGR,150,límite,el,l,298.6334,298.6335,0.929688867,-0.391501557,0,0,0,,0,50,50,443,1,,,,
,,,,,,edd8ac93b2254abe5ddbfa3a,66a626ef09d4e21e1a8894ec,67360fd80393f6a0a77a7d41,2024-11-14_08h57.44.951,Tarea de género gramatical,2024.2.2,Win32,59.88023952,,,,,,,,,,,,,,,,,,,,,,,,298.6341,299.7498,l,1,0.4437,,[],[],[],[],[],[],[],0.4437,1,299.7499,300.2498,,,,,,835,FEM,CON,150,muñeca,,a,300.2503,300.2506,0.929688867,-0.391501557,0,0,0,,0,51,51,384,1,,,,
,,,,,,edd8ac93b2254abe5ddbfa3a,66a626ef09d4e21e1a8894ec,67360fd80393f6a0a77a7d41,2024-11-14_08h57.44.951,Tarea de género gramatical,2024.2.2,Win32,59.88023952,,,,,,,,,,,,,,,,,,,,,,,,300.2509,301.2331,a,1,0.3125,,[],[],[],[],[],[],[],0.3125,1,301.2331,301.733,,,,,,898,MAS,CON,150,aceite,,l,301.733,301.733,0.929688867,-0.391501557,0,0,0,,0,52,52,447,1,,,,
,,,,,,edd8ac93b2254abe5ddbfa3a,66a626ef09d4e21e1a8894ec,67360fd80393f6a0a77a7d41,2024-11-14_08h57.44.951,Tarea de género gramatical,2024.2.2,Win32,59.88023952,,,,,,,,,,,,,,,,,,,,,,,,301.7336,302.983,l,1,0.569,,[],[],[],[],[],[],[],0.569,1,302.983,303.4829,,,,,,579,FEM,AGR,150,rana,la,a,303.4829,303.4829,0.929688867,-0.391501557,0,0,0,,0,53,53,128,1,,,,
,,,,,,edd8ac93b2254abe5ddbfa3a,66a626ef09d4e21e1a8894ec,67360fd80393f6a0a77a7d41,2024-11-14_08h57.44.951,Tarea de género gramatical,2024.2.2,Win32,59.88023952,,,,,,,,,,,,,,,,,,,,,,,,303.4834,304.6162,a,0,0.4553,,[],[],[],[],[],[],[],0.4553,0,304.6165,305.1161,,,,,,645,FEM,AGR,150,pared,la,a,305.1161,305.1162,0.929688867,-0.391501557,0,0,0,,0,54,54,194,1,,,,
,,,,,,edd8ac93b2254abe5ddbfa3a,66a626ef09d4e21e1a8894ec,67360fd80393f6a0a77a7d41,2024-11-14_08h57.44.951,Tarea de género gramatical,2024.2.2,Win32,59.88023952,,,,,,,,,,,,,,,,,,,,,,,,305.1167,306.416,a,1,0.6178,,[],[],[],[],[],[],[],0.6178,1,306.4163,306.916,,,,,,803,MAS,DIS,150,verano,la,l,306.9161,306.9162,0.929688867,-0.391501557,0,0,0,,0,55,55,352,1,,,,
,,,,,,edd8ac93b2254abe5ddbfa3a,66a626ef09d4e21e1a8894ec,67360fd80393f6a0a77a7d41,2024-11-14_08h57.44.951,Tarea de género gramatical,2024.2.2,Win32,59.88023952,,,,,,,,,,,,,,,,,,,,,,,,306.9166,308.116,l,1,0.52,,[],[],[],[],[],[],[],0.52,1,308.116,308.6159,,,,,,787,FEM,CON,150,escena,,a,308.6164,308.6168,0.929688867,-0.391501557,0,0,0,,0,56,56,336,1,,,,
,,,,,,edd8ac93b2254abe5ddbfa3a,66a626ef09d4e21e1a8894ec,67360fd80393f6a0a77a7d41,2024-11-14_08h57.44.951,Tarea de género gramatical,2024.2.2,Win32,59.88023952,,,,,,,,,,,,,,,,,,,,,,,,308.617,309.7992,a,1,0.5051,,[],[],[],[],[],[],[],0.5051,1,309.7992,310.2993,,,,,,694,MAS,CON,150,hielo,,l,310.2993,310.2994,0.929688867,-0.391501557,0,0,0,,0,57,57,243,1,,,,
,,,,,,edd8ac93b2254abe5ddbfa3a,66a626ef09d4e21e1a8894ec,67360fd80393f6a0a77a7d41,2024-11-14_08h57.44.951,Tarea de género gramatical,2024.2.2,Win32,59.88023952,,,,,,,,,,,,,,,,,,,,,,,,310.2998,311.2824,l,1,0.3098,,[],[],[],[],[],[],[],0.3098,1,311.2824,311.7824,,,,,,891,FEM,AGR,150,medida,la,a,311.7824,311.7824,0.929688867,-0.391501557,0,0,0,,0,58,58,440,1,,,,
,,,,,,edd8ac93b2254abe5ddbfa3a,66a626ef09d4e21e1a8894ec,67360fd80393f6a0a77a7d41,2024-11-14_08h57.44.951,Tarea de género gramatical,2024.2.2,Win32,59.88023952,,,,,,,,,,,,,,,,,,,,,,,,311.7829,312.8323,a,1,0.3727,,[],[],[],[],[],[],[],0.3727,1,312.8324,313.3322,,,,,,653,MAS,DIS,150,novio,la,l,313.3323,313.3323,0.929688867,-0.391501557,0,0,0,,0,59,59,202,1,,,,
,,,,,,edd8ac93b2254abe5ddbfa3a,66a626ef09d4e21e1a8894ec,67360fd80393f6a0a77a7d41,2024-11-14_08h57.44.951,Tarea de género gramatical,2024.2.2,Win32,59.88023952,,,,,,,,,,,,,,,,,,,,,,,,313.3328,314.6489,l,0,0.638,,[],[],[],[],[],[],[],0.638,0,314.6492,315.1488,,,,,,707,MAS,DIS,150,pecho,la,l,315.1493,315.1497,0.929688867,-0.391501557,0,0,0,,0,60,60,256,1,,,,
,,,,,,edd8ac93b2254abe5ddbfa3a,66a626ef09d4e21e1a8894ec,67360fd80393f6a0a77a7d41,2024-11-14_08h57.44.951,Tarea de género gramatical,2024.2.2,Win32,59.88023952,,,,,,,,,,,,,,,,,,,,,,,,315.1501,316.2321,a,1,0.4024,,[],[],[],[],[],[],[],0.4024,1,316.2325,316.7321,,,,,,804,MAS,AGR,150,camión,el,l,316.7321,316.7322,0.929688867,-0.391501557,0,0,0,,0,61,61,353,1,,,,
,,,,,,edd8ac93b2254abe5ddbfa3a,66a626ef09d4e21e1a8894ec,67360fd80393f6a0a77a7d41,2024-11-14_08h57.44.951,Tarea de género gramatical,2024.2.2,Win32,59.88023952,,,,,,,,,,,,,,,,,,,,,,,,316.7326,317.7156,l,1,0.304,,[],[],[],[],[],[],[],0.304,1,317.7157,318.2153,,,,,,613,FEM,CON,150,calle,,a,318.2153,318.2153,0.929688867,-0.391501557,0,0,0,,0,62,62,162,1,,,,
,,,,,,edd8ac93b2254abe5ddbfa3a,66a626ef09d4e21e1a8894ec,67360fd80393f6a0a77a7d41,2024-11-14_08h57.44.951,Tarea de género gramatical,2024.2.2,Win32,59.88023952,,,,,,,,,,,,,,,,,,,,,,,,318.2158,319.0652,a,1,0.1716,,[],[],[],[],[],[],[],0.1716,1,319.0652,319.5652,,,,,,838,MAS,CON,150,empleo,,l,319.5652,319.5653,0.929688867,-0.391501557,0,0,0,,0,63,63,387,1,,,,
,,,,,,edd8ac93b2254abe5ddbfa3a,66a626ef09d4e21e1a8894ec,67360fd80393f6a0a77a7d41,2024-11-14_08h57.44.951,Tarea de género gramatical,2024.2.2,Win32,59.88023952,,,,,,,,,,,,,,,,,,,,,,,,319.5657,320.5818,l,1,0.3348,,[],[],[],[],[],[],[],0.3348,1,320.5818,321.0818,,,,,,691,FEM,CON,150,pasta,,a,321.0818,321.0819,0.929688867,-0.391501557,0,0,0,,0,64,64,240,1,,,,
,,,,,,edd8ac93b2254abe5ddbfa3a,66a626ef09d4e21e1a8894ec,67360fd80393f6a0a77a7d41,2024-11-14_08h57.44.951,Tarea de género gramatical,2024.2.2,Win32,59.88023952,,,,,,,,,,,,,,,,,,,,,,,,321.0823,322.0818,a,1,0.3212,,[],[],[],[],[],[],[],0.3212,1,322.0818,322.5818,,,,,,468,MAS,AGR,150,tren,el,l,322.5824,322.5827,0.929688867,-0.391501557,0,0,0,,0,65,65,17,1,,,,
,,,,,,edd8ac93b2254abe5ddbfa3a,66a626ef09d4e21e1a8894ec,67360fd80393f6a0a77a7d41,2024-11-14_08h57.44.951,Tarea de género gramatical,2024.2.2,Win32,59.88023952,,,,,,,,,,,,,,,,,,,,,,,,322.5831,323.5649,l,1,0.3093,,[],[],[],[],[],[],[],0.3093,1,323.5651,324.0649,,,,,,704,FEM,DIS,150,caída,el,a,324.0649,324.0649,0.929688867,-0.391501557,0,0,0,,0,66,66,253,1,,,,
,,,,,,edd8ac93b2254abe5ddbfa3a,66a626ef09d4e21e1a8894ec,67360fd80393f6a0a77a7d41,2024-11-14_08h57.44.951,Tarea de género gramatical,2024.2.2,Win32,59.88023952,,,,,,,,,,,,,,,,,,,,,,,,324.0654,324.9816,a,1,0.2442,,[],[],[],[],[],[],[],0.2442,1,324.9816,325.4814,,,,,,629,MAS,DIS,150,viaje,la,l,325.4815,325.4816,0.929688867,-0.391501557,0,0,0,,0,67,67,178,1,,,,
,,,,,,edd8ac93b2254abe5ddbfa3a,66a626ef09d4e21e1a8894ec,67360fd80393f6a0a77a7d41,2024-11-14_08h57.44.951,Tarea de género gramatical,2024.2.2,Win32,59.88023952,,,,,,,,,,,,,,,,,,,,,,,,325.482,326.5314,l,0,0.3667,,[],[],[],[],[],[],[],0.3667,0,326.5318,327.0314,,,,,,616,MAS,CON,150,coche,,l,327.0314,327.0315,0.929688867,-0.391501557,0,0,0,,0,68,68,165,1,,,,
,,,,,,edd8ac93b2254abe5ddbfa3a,66a626ef09d4e21e1a8894ec,67360fd80393f6a0a77a7d41,2024-11-14_08h57.44.951,Tarea de género gramatical,2024.2.2,Win32,59.88023952,,,,,,,,,,,,,,,,,,,,,,,,327.0319,328.0647,l,1,0.3567,,[],[],[],[],[],[],[],0.3567,1,328.0652,328.5647,,,,,,573,FEM,AGR,150,tela,la,a,328.5652,328.5656,0.929688867,-0.391501557,0,0,0,,0,69,69,122,1,,,,
,,,,,,edd8ac93b2254abe5ddbfa3a,66a626ef09d4e21e1a8894ec,67360fd80393f6a0a77a7d41,2024-11-14_08h57.44.951,Tarea de género gramatical,2024.2.2,Win32,59.88023952,,,,,,,,,,,,,,,,,,,,,,,,328.5659,329.6646,l,1,0.4254,,[],[],[],[],[],[],[],0.4254,1,329.6646,330.1646,,,,,,801,FEM,AGR,150,espada,la,a,330.1646,330.1646,0.929688867,-0.391501557,0,0,0,,0,70,70,350,1,,,,
,,,,,,edd8ac93b2254abe5ddbfa3a,66a626ef09d4e21e1a8894ec,67360fd80393f6a0a77a7d41,2024-11-14_08h57.44.951,Tarea de género gramatical,2024.2.2,Win32,59.88023952,,,,,,,,,,,,,,,,,,,,,,,,330.165,331.2144,a,1,0.3736,,[],[],[],[],[],[],[],0.3736,1,331.2145,331.7145,,,,,,719,MAS,DIS,150,primo,la,l,331.7145,331.7145,0.929688867,-0.391501557,0,0,0,,0,71,71,268,1,,,,
,,,,,,edd8ac93b2254abe5ddbfa3a,66a626ef09d4e21e1a8894ec,67360fd80393f6a0a77a7d41,2024-11-14_08h57.44.951,Tarea de género gramatical,2024.2.2,Win32,59.88023952,,,,,,,,,,,,,,,,,,,,,,,,331.715,332.6643,a,1,0.2798,,[],[],[],[],[],[],[],0.2798,1,332.6644,333.1643,,,,,,600,MAS,AGR,150,mozo,el,l,333.1644,333.1644,0.929688867,-0.391501557,0,0,0,,0,72,72,149,1,,,,
,,,,,,edd8ac93b2254abe5ddbfa3a,66a626ef09d4e21e1a8894ec,67360fd80393f6a0a77a7d41,2024-11-14_08h57.44.951,Tarea de género gramatical,2024.2.2,Win32,59.88023952,,,,,,,,,,,,,,,,,,,,,,,,333.1649,334.1809,a,1,0.3366,,[],[],[],[],[],[],[],0.3366,1,334.1809,334.6809,,,,,,792,MAS,AGR,150,abuelo,el,l,334.6809,334.681,0.929688867,-0.391501557,0,0,0,,0,73,73,341,1,,,,
,,,,,,edd8ac93b2254abe5ddbfa3a,66a626ef09d4e21e1a8894ec,67360fd80393f6a0a77a7d41,2024-11-14_08h57.44.951,Tarea de género gramatical,2024.2.2,Win32,59.88023952,,,,,,,,,,,,,,,,,,,,,,,,334.6814,335.9142,a,1,0.5519,,[],[],[],[],[],[],[],0.5519,1,335.9142,336.4141,,,,,,484,MAS,CON,150,gato,,l,336.4147,336.415,0.929688867,-0.391501557,0,0,0,,0,74,74,33,1,,,,
,,,,,,edd8ac93b2254abe5ddbfa3a,66a626ef09d4e21e1a8894ec,67360fd80393f6a0a77a7d41,2024-11-14_08h57.44.951,Tarea de género gramatical,2024.2.2,Win32,59.88023952,,,,,,,,,,,,,,,,,,,,,,,,336.4153,337.6474,a,1,0.5533,,[],[],[],[],[],[],[],0.5533,1,337.6474,338.1473,,,,,,858,MAS,AGR,150,cheque,el,l,338.1473,338.1474,0.929688867,-0.391501557,0,0,0,,0,75,75,407,1,,,,
,,,,,,edd8ac93b2254abe5ddbfa3a,66a626ef09d4e21e1a8894ec,67360fd80393f6a0a77a7d41,2024-11-14_08h57.44.951,Tarea de género gramatical,2024.2.2,Win32,59.88023952,,,,,,,,,,,,,,,,,,,,,,,,338.1479,339.2806,l,0,0.4581,,[],[],[],[],[],[],[],0.4581,0,339.281,339.7806,,,,,,522,MAS,AGR,150,hoyo,el,l,339.7806,339.7806,0.929688867,-0.391501557,0,0,0,,0,76,76,71,1,,,,
,,,,,,edd8ac93b2254abe5ddbfa3a,66a626ef09d4e21e1a8894ec,67360fd80393f6a0a77a7d41,2024-11-14_08h57.44.951,Tarea de género gramatical,2024.2.2,Win32,59.88023952,,,,,,,,,,,,,,,,,,,,,,,,339.7811,340.8806,l,1,0.4213,,[],[],[],[],[],[],[],0.4213,1,340.881,341.3805,,,,,,506,FEM,DIS,150,bola,el,a,341.3806,341.3806,0.929688867,-0.391501557,0,0,0,,0,77,77,55,1,,,,
,,,,,,edd8ac93b2254abe5ddbfa3a,66a626ef09d4e21e1a8894ec,67360fd80393f6a0a77a7d41,2024-11-14_08h57.44.951,Tarea de género gramatical,2024.2.2,Win32,59.88023952,,,,,,,,,,,,,,,,,,,,,,,,341.3811,342.4804,l,1,0.4284,,[],[],[],[],[],[],[],0.4284,1,342.4805,342.9804,,,,,,477,FEM,AGR,150,mesa,la,a,342.9809,342.9814,0.929688867,-0.391501557,0,0,0,,0,78,78,26,1,,,,
,,,,,,edd8ac93b2254abe5ddbfa3a,66a626ef09d4e21e1a8894ec,67360fd80393f6a0a77a7d41,2024-11-14_08h57.44.951,Tarea de género gramatical,2024.2.2,Win32,59.88023952,,,,,,,,,,,,,,,,,,,,,,,,342.9817,344.147,l,1,0.4851,,[],[],[],[],[],[],[],0.4851,1,344.147,344.647,,,,,,836,FEM,DIS,150,sombra,el,a,344.6471,344.6471,0.929688867,-0.391501557,0,0,0,,0,79,79,385,1,,,,
,,,,,,edd8ac93b2254abe5ddbfa3a,66a626ef09d4e21e1a8894ec,67360fd80393f6a0a77a7d41,2024-11-14_08h57.44.951,Tarea de género gramatical,2024.2.2,Win32,59.88023952,,,,,,,,,,,,,,,,,,,,,,,,344.6476,345.6969,l,1,0.3679,,[],[],[],[],[],[],[],0.3679,1,345.6969,346.1969,,,,,,867,FEM,AGR,150,cabaña,la,a,346.1969,346.1969,0.929688867,-0.391501557,0,0,0,,0,80,80,416,1,,,,
,,,,,,edd8ac93b2254abe5ddbfa3a,66a626ef09d4e21e1a8894ec,67360fd80393f6a0a77a7d41,2024-11-14_08h57.44.951,Tarea de género gramatical,2024.2.2,Win32,59.88023952,,,,,,,,,,,,,,,,,,,,,,,,346.1973,347.1968,a,0,0.3308,,[],[],[],[],[],[],[],0.3308,0,347.1973,347.6967,,,,,,770,FEM,DIS,150,fiesta,el,a,347.6968,347.6968,0.929688867,-0.391501557,0,0,0,,0,81,81,319,1,,,,
,,,,,,edd8ac93b2254abe5ddbfa3a,66a626ef09d4e21e1a8894ec,67360fd80393f6a0a77a7d41,2024-11-14_08h57.44.951,Tarea de género gramatical,2024.2.2,Win32,59.88023952,,,,,,,,,,,,,,,,,,,,,,,,347.6973,349.08,a,1,0.7032,,[],[],[],[],[],[],[],0.7032,1,349.0804,349.58,,,,,,827,MAS,DIS,150,jardín,la,l,349.58,349.5801,0.929688867,-0.391501557,0,0,0,,0,82,82,376,1,,,,
,,,,,,edd8ac93b2254abe5ddbfa3a,66a626ef09d4e21e1a8894ec,67360fd80393f6a0a77a7d41,2024-11-14_08h57.44.951,Tarea de género gramatical,2024.2.2,Win32,59.88023952,,,,,,,,,,,,,,,,,,,,,,,,349.5805,350.6132,a,1,0.359,,[],[],[],[],[],[],[],0.359,1,350.6133,351.1132,,,,,,695,MAS,DIS,150,turno,la,l,351.1137,351.1141,0.929688867,-0.391501557,0,0,0,,0,83,83,244,1,,,,
,,,,,,edd8ac93b2254abe5ddbfa3a,66a626ef09d4e21e1a8894ec,67360fd80393f6a0a77a7d41,2024-11-14_08h57.44.951,Tarea de género gramatical,2024.2.2,Win32,59.88023952,,,,,,,,,,,,,,,,,,,,,,,,351.1143,352.4298,a,0,0.6339,,[],[],[],[],[],[],[],0.6339,0,352.4302,352.9298,,,,,,753,FEM,AGR,150,maldad,la,a,352.9299,352.9299,0.929688867,-0.391501557,0,0,0,,0,84,84,302,1,,,,
,,,,,,edd8ac93b2254abe5ddbfa3a,66a626ef09d4e21e1a8894ec,67360fd80393f6a0a77a7d41,2024-11-14_08h57.44.951,Tarea de género gramatical,2024.2.2,Win32,59.88023952,,,,,,,,,,,,,,,,,,,,,,,,352.9304,354.0796,a,1,0.4705,,[],[],[],[],[],[],[],0.4705,1,354.08,354.5797,,,,,,712,MAS,CON,150,video,,l,354.5797,354.5797,0.929688867,-0.391501557,0,0,0,,0,85,85,261,1,,,,
,,,,,,edd8ac93b2254abe5ddbfa3a,66a626ef09d4e21e1a8894ec,67360fd80393f6a0a77a7d41,2024-11-14_08h57.44.951,Tarea de género gramatical,2024.2.2,Win32,59.88023952,,,,,,,,,,,,,,,,,,,,,,,,354.5802,355.7796,a,1,0.5291,,[],[],[],[],[],[],[],0.5291,1,355.7796,356.2796,,,,,,731,MAS,DIS,150,actor,la,l,356.2796,356.2796,0.929688867,-0.391501557,0,0,0,,0,86,86,280,1,,,,
,,,,,,edd8ac93b2254abe5ddbfa3a,66a626ef09d4e21e1a8894ec,67360fd80393f6a0a77a7d41,2024-11-14_08h57.44.951,Tarea de género gramatical,2024.2.2,Win32,59.88023952,,,,,,,,,,,,,,,,,,,,,,,,356.28,357.5627,a,1,0.6114,,[],[],[],[],[],[],[],0.6114,1,357.5628,358.0628,,,,,,478,MAS,CON,150,club,,l,358.0633,358.0636,0.929688867,-0.391501557,0,0,0,,0,87,87,27,1,,,,
,,,,,,edd8ac93b2254abe5ddbfa3a,66a626ef09d4e21e1a8894ec,67360fd80393f6a0a77a7d41,2024-11-14_08h57.44.951,Tarea de género gramatical,2024.2.2,Win32,59.88023952,,,,,,,,,,,,,,,,,,,,,,,,358.0639,359.0961,a,1,0.3511,,[],[],[],[],[],[],[],0.3511,1,359.0961,359.596,,,,,,546,MAS,AGR,150,pato,el,l,359.596,359.5961,0.929688867,-0.391501557,0,0,0,,0,88,88,95,1,,,,
,,,,,,edd8ac93b2254abe5ddbfa3a,66a626ef09d4e21e1a8894ec,67360fd80393f6a0a77a7d41,2024-11-14_08h57.44.951,Tarea de género gramatical,2024.2.2,Win32,59.88023952,,,,,,,,,,,,,,,,,,,,,,,,359.5966,360.8292,l,1,0.563,,[],[],[],[],[],[],[],0.563,1,360.8293,361.3292,,,,,,854,FEM,DIS,150,gloria,el,a,361.3293,361.3293,0.929688867,-0.391501557,0,0,0,,0,89,89,403,1,,,,
,,,,,,edd8ac93b2254abe5ddbfa3a,66a626ef09d4e21e1a8894ec,67360fd80393f6a0a77a7d41,2024-11-14_08h57.44.951,Tarea de género gramatical,2024.2.2,Win32,59.88023952,,,,,,,,,,,,,,,,,,,,,,,,361.3297,362.6125,a,1,0.5997,,[],[],[],[],[],[],[],0.5997,1,362.6126,363.1125,,,,,,641,MAS,DIS,150,dolor,la,l,363.1125,363.1125,0.929688867,-0.391501557,0,0,0,,0,90,90,190,1,,,,
,,,,,,edd8ac93b2254abe5ddbfa3a,66a626ef09d4e21e1a8894ec,67360fd80393f6a0a77a7d41,2024-11-14_08h57.44.951,Tarea de género gramatical,2024.2.2,Win32,59.88023952,,,,,,,,,,,,,,,,,,,,,,,,363.113,364.629,l,1,0.8364,,[],[],[],[],[],[],[],0.8364,1,364.6291,365.129,,,,,,536,FEM,DIS,150,cruz,el,a,365.129,365.129,0.929688867,-0.391501557,0,0,0,,0,91,91,85,1,,,,
,,,,,,edd8ac93b2254abe5ddbfa3a,66a626ef09d4e21e1a8894ec,67360fd80393f6a0a77a7d41,2024-11-14_08h57.44.951,Tarea de género gramatical,2024.2.2,Win32,59.88023952,,,,,,,,,,,,,,,,,,,,,,,,365.1295,366.196,l,1,0.3861,,[],[],[],[],[],[],[],0.3861,1,366.1961,366.6955,,,,,,885,FEM,AGR,150,niebla,la,a,366.6961,366.6964,0.929688867,-0.391501557,0,0,0,,0,92,92,434,1,,,,
,,,,,,edd8ac93b2254abe5ddbfa3a,66a626ef09d4e21e1a8894ec,67360fd80393f6a0a77a7d41,2024-11-14_08h57.44.951,Tarea de género gramatical,2024.2.2,Win32,59.88023952,,,,,,,,,,,,,,,,,,,,,,,,366.6967,367.7288,l,1,0.3603,,[],[],[],[],[],[],[],0.3603,1,367.7288,368.2288,,,,,,608,FEM,DIS,150,chica,el,a,368.2288,368.2289,0.929688867,-0.391501557,0,0,0,,0,93,93,157,1,,,,
,,,,,,edd8ac93b2254abe5ddbfa3a,66a626ef09d4e21e1a8894ec,67360fd80393f6a0a77a7d41,2024-11-14_08h57.44.951,Tarea de género gramatical,2024.2.2,Win32,59.88023952,,,,,,,,,,,,,,,,,,,,,,,,368.2293,369.1455,l,0,0.2445,,[],[],[],[],[],[],[],0.2445,0,369.1458,369.6454,,,,,,498,MAS,AGR,150,loco,el,l,369.6454,369.6454,0.929688867,-0.391501557,0,0,0,,0,94,94,47,1,,,,
,,,,,,edd8ac93b2254abe5ddbfa3a,66a626ef09d4e21e1a8894ec,67360fd80393f6a0a77a7d41,2024-11-14_08h57.44.951,Tarea de género gramatical,2024.2.2,Win32,59.88023952,,,,,,,,,,,,,,,,,,,,,,,,369.6459,371.1786,a,1,0.8536,,[],[],[],[],[],[],[],0.8536,1,371.1789,371.6785,,,,,,574,MAS,CON,150,clan,,l,371.6785,371.6786,0.929688867,-0.391501557,0,0,0,,0,95,95,123,1,,,,
,,,,,,edd8ac93b2254abe5ddbfa3a,66a626ef09d4e21e1a8894ec,67360fd80393f6a0a77a7d41,2024-11-14_08h57.44.951,Tarea de género gramatical,2024.2.2,Win32,59.88023952,,,,,,,,,,,,,,,,,,,,,,,,371.6791,372.9785,a,1,0.6262,,[],[],[],[],[],[],[],0.6262,1,372.9786,373.4784,,,,,,785,MAS,DIS,150,montón,la,l,373.479,373.4794,0.929688867,-0.391501557,0,0,0,,0,96,96,334,1,,,,
,,,,,,edd8ac93b2254abe5ddbfa3a,66a626ef09d4e21e1a8894ec,67360fd80393f6a0a77a7d41,2024-11-14_08h57.44.951,Tarea de género gramatical,2024.2.2,Win32,59.88023952,,,,,,,,,,,,,,,,,,,,,,,,373.4796,374.4951,a,0,0.3353,,[],[],[],[],[],[],[],0.3353,0,374.4954,374.9949,,,,,,855,FEM,AGR,150,parada,la,a,374.995,374.995,0.929688867,-0.391501557,0,0,0,,0,97,97,404,1,,,,
,,,,,,edd8ac93b2254abe5ddbfa3a,66a626ef09d4e21e1a8894ec,67360fd80393f6a0a77a7d41,2024-11-14_08h57.44.951,Tarea de género gramatical,2024.2.2,Win32,59.88023952,,,,,,,,,,,,,,,,,,,,,,,,374.9956,376.4116,a,1,0.7336,,[],[],[],[],[],[],[],0.7336,1,376.4118,376.9116,,,,,,581,MAS,DIS,150,kilo,la,l,376.9116,376.9116,0.929688867,-0.391501557,0,0,0,,0,98,98,130,1,,,,
,,,,,,edd8ac93b2254abe5ddbfa3a,66a626ef09d4e21e1a8894ec,67360fd80393f6a0a77a7d41,2024-11-14_08h57.44.951,Tarea de género gramatical,2024.2.2,Win32,59.88023952,,,,,,,,,,,,,,,,,,,,,,,,376.912,378.1115,a,1,0.5274,,[],[],[],[],[],[],[],0.5274,1,378.1115,378.6115,,,,,,702,MAS,AGR,150,viejo,el,l,378.6115,378.6115,0.929688867,-0.391501557,0,0,0,,0,99,99,251,1,,,,
,,,,,,edd8ac93b2254abe5ddbfa3a,66a626ef09d4e21e1a8894ec,67360fd80393f6a0a77a7d41,2024-11-14_08h57.44.951,Tarea de género gramatical,2024.2.2,Win32,59.88023952,,,,,,,,,,,,,,,,,,,,,,,,378.612,379.8447,a,1,0.5503,,[],[],[],[],[],[],[],0.5503,1,379.8447,380.3447,,,,,,466,MAS,CON,150,baño,,l,380.3447,380.3447,0.929688867,-0.391501557,0,0,0,,0,100,100,15,1,,,,
,,,,,,edd8ac93b2254abe5ddbfa3a,66a626ef09d4e21e1a8894ec,67360fd80393f6a0a77a7d41,2024-11-14_08h57.44.951,Tarea de género gramatical,2024.2.2,Win32,59.88023952,,,,,,,,,,,,,,,,,,,,,,,,380.3452,381.3446,a,1,0.3282,,[],[],[],[],[],[],[],0.3282,1,381.3446,381.8447,,,,,,550,MAS,CON,150,nido,,l,381.8452,381.8455,0.929688867,-0.391501557,0,0,0,,0,101,101,99,1,,,,
,,,,,,edd8ac93b2254abe5ddbfa3a,66a626ef09d4e21e1a8894ec,67360fd80393f6a0a77a7d41,2024-11-14_08h57.44.951,Tarea de género gramatical,2024.2.2,Win32,59.88023952,,,,,,,,,,,,,,,,,,,,,,,,381.8458,383.0948,l,1,0.5786,,[],[],[],[],[],[],[],0.5786,1,383.0948,383.5947,,,,,,895,FEM,CON,150,bondad,,a,383.5947,383.5948,0.929688867,-0.391501557,0,0,0,,0,102,102,444,1,,,,
,,,,,,edd8ac93b2254abe5ddbfa3a,66a626ef09d4e21e1a8894ec,67360fd80393f6a0a77a7d41,2024-11-14_08h57.44.951,Tarea de género gramatical,2024.2.2,Win32,59.88023952,,,,,,,,,,,,,,,,,,,,,,,,383.5957,384.7112,l,1,0.4443,,[],[],[],[],[],[],[],0.4443,1,384.7112,385.211,,,,,,741,FEM,AGR,150,aguja,la,a,385.211,385.2111,0.929688867,-0.391501557,0,0,0,,0,103,103,290,1,,,,
,,,,,,edd8ac93b2254abe5ddbfa3a,66a626ef09d4e21e1a8894ec,67360fd80393f6a0a77a7d41,2024-11-14_08h57.44.951,Tarea de género gramatical,2024.2.2,Win32,59.88023952,,,,,,,,,,,,,,,,,,,,,,,,385.2116,386.2776,l,0,0.3875,,[],[],[],[],[],[],[],0.3875,0,386.2779,386.7777,,,,,,708,MAS,AGR,150,polvo,el,l,386.7777,386.7777,0.929688867,-0.391501557,0,0,0,,0,104,104,257,1,,,,
,,,,,,edd8ac93b2254abe5ddbfa3a,66a626ef09d4e21e1a8894ec,67360fd80393f6a0a77a7d41,2024-11-14_08h57.44.951,Tarea de género gramatical,2024.2.2,Win32,59.88023952,,,,,,,,,,,,,,,,,,,,,,,,386.7782,387.5442,l,0,0.0877,,[],[],[],[],[],[],[],0.0877,0,387.5443,388.0442,,,,,,569,MAS,DIS,150,mito,la,l,388.0447,388.0451,0.929688867,-0.391501557,0,0,0,,0,105,105,118,1,,,,
,,,,,,edd8ac93b2254abe5ddbfa3a,66a626ef09d4e21e1a8894ec,67360fd80393f6a0a77a7d41,2024-11-14_08h57.44.951,Tarea de género gramatical,2024.2.2,Win32,59.88023952,,,,,,,,,,,,,,,,,,,,,,,,388.0453,389.2108,a,1,0.4844,,[],[],[],[],[],[],[],0.4844,1,389.2111,389.7108,,,,,,742,MAS,CON,150,piano,,l,389.7108,389.7108,0.929688867,-0.391501557,0,0,0,,0,106,106,291,1,,,,
,,,,,,edd8ac93b2254abe5ddbfa3a,66a626ef09d4e21e1a8894ec,67360fd80393f6a0a77a7d41,2024-11-14_08h57.44.951,Tarea de género gramatical,2024.2.2,Win32,59.88023952,,,,,,,,,,,,,,,,,,,,,,,,389.7113,391.1773,a,1,0.7947,,[],[],[],[],[],[],[],0.7947,1,391.1773,391.6772,,,,,,497,MAS,DIS,150,olor,la,l,391.6772,391.6773,0.929688867,-0.391501557,0,0,0,,0,107,107,46,1,,,,
,,,,,,edd8ac93b2254abe5ddbfa3a,66a626ef09d4e21e1a8894ec,67360fd80393f6a0a77a7d41,2024-11-14_08h57.44.951,Tarea de género gramatical,2024.2.2,Win32,59.88023952,,,,,,,,,,,,,,,,,,,,,,,,391.6778,393.0605,l,1,0.7068,,[],[],[],[],[],[],[],0.7068,1,393.0605,393.5605,,,,,,459,FEM,AGR,150,mamá,la,a,393.5605,393.5605,0.929688867,-0.391501557,0,0,0,,0,108,108,8,1,,,,
,,,,,,edd8ac93b2254abe5ddbfa3a,66a626ef09d4e21e1a8894ec,67360fd80393f6a0a77a7d41,2024-11-14_08h57.44.951,Tarea de género gramatical,2024.2.2,Win32,59.88023952,,,,,,,,,,,,,,,,,,,,,,,,393.561,395.1937,l,1,0.95,,[],[],[],[],[],[],[],0.95,1,395.1938,395.6937,,,,,,567,FEM,AGR,150,raya,la,a,395.6937,395.6937,0.929688867,-0.391501557,0,0,0,,0,109,109,116,1,,,,
,,,,,,edd8ac93b2254abe5ddbfa3a,66a626ef09d4e21e1a8894ec,67360fd80393f6a0a77a7d41,2024-11-14_08h57.44.951,Tarea de género gramatical,2024.2.2,Win32,59.88023952,,,,,,,,,,,,,,,,,,,,,,,,395.6944,396.727,a,1,0.3552,,[],[],[],[],[],[],[],0.3552,1,396.727,397.2269,,,,,,564,MAS,AGR,150,menú,el,l,397.2275,397.2278,0.929688867,-0.391501557,0,0,0,,0,110,110,113,1,,,,
,,,,,,edd8ac93b2254abe5ddbfa3a,66a626ef09d4e21e1a8894ec,67360fd80393f6a0a77a7d41,2024-11-14_08h57.44.951,Tarea de género gramatical,2024.2.2,Win32,59.88023952,,,,,,,,,,,,,,,,,,,,,,,,397.2281,398.2602,a,1,0.3629,,[],[],[],[],[],[],[],0.3629,1,398.2602,398.7601,,,,,,612,MAS,AGR,150,miedo,el,l,398.7602,398.7602,0.929688867,-0.391501557,0,0,0,,0,111,111,161,1,,,,
,,,,,,edd8ac93b2254abe5ddbfa3a,66a626ef09d4e21e1a8894ec,67360fd80393f6a0a77a7d41,2024-11-14_08h57.44.951,Tarea de género gramatical,2024.2.2,Win32,59.88023952,,,,,,,,,,,,,,,,,,,,,,,,398.7607,399.8601,l,1,0.419,,[],[],[],[],[],[],[],0.419,1,399.8601,400.36,,,,,,470,FEM,DIS,150,ropa,el,a,400.3601,400.3601,0.929688867,-0.391501557,0,0,0,,0,112,112,19,1,,,,
,,,,,,edd8ac93b2254abe5ddbfa3a,66a626ef09d4e21e1a8894ec,67360fd80393f6a0a77a7d41,2024-11-14_08h57.44.951,Tarea de género gramatical,2024.2.2,Win32,59.88023952,,,,,,,,,,,,,,,,,,,,,,,,400.3606,401.9433,l,1,0.9077,,[],[],[],[],[],[],[],0.9077,1,401.9434,402.4433,,,,,,633,FEM,AGR,150,llave,la,a,402.4433,402.4433,0.929688867,-0.391501557,0,0,0,,0,113,113,182,1,,,,
,,,,,,edd8ac93b2254abe5ddbfa3a,66a626ef09d4e21e1a8894ec,67360fd80393f6a0a77a7d41,2024-11-14_08h57.44.951,Tarea de género gramatical,2024.2.2,Win32,59.88023952,,,,,,,,,,,,,,,,,,,,,,,,402.4438,403.5098,a,1,0.3907,,[],[],[],[],[],[],[],0.3907,1,403.5098,404.0097,,,,,,700,MAS,CON,150,cerdo,,l,404.0103,404.0107,0.929688867,-0.391501557,0,0,0,,0,114,114,249,1,,,,
,,,,,,edd8ac93b2254abe5ddbfa3a,66a626ef09d4e21e1a8894ec,67360fd80393f6a0a77a7d41,2024-11-14_08h57.44.951,Tarea de género gramatical,2024.2.2,Win32,59.88023952,,,,,,,,,,,,,,,,,,,,,,,,404.0109,405.0264,a,0,0.3401,,[],[],[],[],[],[],[],0.3401,0,405.0268,405.5266,,,,,,559,FEM,CON,150,gota,,a,405.5266,405.5266,0.929688867,-0.391501557,0,0,0,,0,115,115,108,1,,,,
,,,,,,edd8ac93b2254abe5ddbfa3a,66a626ef09d4e21e1a8894ec,67360fd80393f6a0a77a7d41,2024-11-14_08h57.44.951,Tarea de género gramatical,2024.2.2,Win32,59.88023952,,,,,,,,,,,,,,,,,,,,,,,,405.5271,406.5764,a,1,0.3669,,[],[],[],[],[],[],[],0.3669,1,406.5768,407.0763,,,,,,648,MAS,AGR,150,hotel,el,l,407.0763,407.0764,0.929688867,-0.391501557,0,0,0,,0,116,116,197,1,,,,
,,,,,,edd8ac93b2254abe5ddbfa3a,66a626ef09d4e21e1a8894ec,67360fd80393f6a0a77a7d41,2024-11-14_08h57.44.951,Tarea de género gramatical,2024.2.2,Win32,59.88023952,,,,,,,,,,,,,,,,,,,,,,,,407.0767,408.2095,l,1,0.4615,,[],[],[],[],[],[],[],0.4615,1,408.2096,408.7095,,,,,,813,FEM,AGR,150,unidad,la,a,408.7095,408.7096,0.929688867,-0.391501557,0,0,0,,0,117,117,362,1,,,,
,,,,,,edd8ac93b2254abe5ddbfa3a,66a626ef09d4e21e1a8894ec,67360fd80393f6a0a77a7d41,2024-11-14_08h57.44.951,Tarea de género gramatical,2024.2.2,Win32,59.88023952,,,,,,,,,,,,,,,,,,,,,,,,408.7102,409.8094,a,1,0.4281,,[],[],[],[],[],[],[],0.4281,1,409.8095,410.3094,,,,,,647,MAS,DIS,150,avión,la,l,410.3094,410.3095,0.929688867,-0.391501557,0,0,0,,0,118,118,196,1,,,,
,,,,,,edd8ac93b2254abe5ddbfa3a,66a626ef09d4e21e1a8894ec,67360fd80393f6a0a77a7d41,2024-11-14_08h57.44.951,Tarea de género gramatical,2024.2.2,Win32,59.88023952,,,,,,,,,,,,,,,,,,,,,,,,410.3099,411.7429,a,1,0.7647,,[],[],[],[],[],[],[],0.7647,1,411.743,412.2426,,,,,,900,MAS,AGR,150,conejo,el,l,412.2431,412.2434,0.929688867,-0.391501557,0,0,0,,0,119,119,449,1,,,,
,,,,,,edd8ac93b2254abe5ddbfa3a,66a626ef09d4e21e1a8894ec,67360fd80393f6a0a77a7d41,2024-11-14_08h57.44.951,Tarea de género gramatical,2024.2.2,Win32,59.88023952,,,,,,,,,,,,,,,,,,,,,,,,412.2437,413.3592,l,0,0.438,,[],[],[],[],[],[],[],0.438,0,413.3596,413.8592,,,,,,503,MAS,DIS,150,vaso,la,l,413.8592,413.8592,0.929688867,-0.391501557,0,0,0,,0,120,120,52,1,,,,
,,,,,,edd8ac93b2254abe5ddbfa3a,66a626ef09d4e21e1a8894ec,67360fd80393f6a0a77a7d41,2024-11-14_08h57.44.951,Tarea de género gramatical,2024.2.2,Win32,59.88023952,,,,,,,,,,,,,,,,,,,,,,,,413.8597,415.0091,a,0,0.4677,,[],[],[],[],[],[],[],0.4677,0,415.0092,415.5091,,,,,,776,FEM,DIS,150,música,el,a,415.5091,415.5091,0.929688867,-0.391501557,0,0,0,,0,121,121,325,1,,,,
,,,,,,edd8ac93b2254abe5ddbfa3a,66a626ef09d4e21e1a8894ec,67360fd80393f6a0a77a7d41,2024-11-14_08h57.44.951,Tarea de género gramatical,2024.2.2,Win32,59.88023952,,,,,,,,,,,,,,,,,,,,,,,,415.5097,416.6091,l,1,0.4171,,[],[],[],[],[],[],[],0.4171,1,416.6095,417.109,,,,,,657,FEM,AGR,150,playa,la,a,417.109,417.1091,0.929688867,-0.391501557,0,0,0,,0,122,122,206,1,,,,
,,,,,,edd8ac93b2254abe5ddbfa3a,66a626ef09d4e21e1a8894ec,67360fd80393f6a0a77a7d41,2024-11-14_08h57.44.951,Tarea de género gramatical,2024.2.2,Win32,59.88023952,,,,,,,,,,,,,,,,,,,,,,,,417.1095,418.1756,a,1,0.3837,,[],[],[],[],[],[],[],0.3837,1,418.1756,418.6755,,,,,,690,MAS,AGR,150,ruido,el,l,418.676,418.6763,0.929688867,-0.391501557,0,0,0,,0,123,123,239,1,,,,
,,,,,,edd8ac93b2254abe5ddbfa3a,66a626ef09d4e21e1a8894ec,67360fd80393f6a0a77a7d41,2024-11-14_08h57.44.951,Tarea de género gramatical,2024.2.2,Win32,59.88023952,,,,,,,,,,,,,,,,,,,,,,,,418.6766,420.0921,l,1,0.7462,,[],[],[],[],[],[],[],0.7462,1,420.0921,420.5921,,,,,,890,FEM,DIS,150,patada,el,a,420.5921,420.5921,0.929688867,-0.391501557,0,0,0,,0,124,124,439,1,,,,
,,,,,,edd8ac93b2254abe5ddbfa3a,66a626ef09d4e21e1a8894ec,67360fd80393f6a0a77a7d41,2024-11-14_08h57.44.951,Tarea de género gramatical,2024.2.2,Win32,59.88023952,,,,,,,,,,,,,,,,,,,,,,,,420.5927,421.7254,l,1,0.4618,,[],[],[],[],[],[],[],0.4618,1,421.7254,422.2253,,,,,,783,FEM,AGR,150,locura,la,a,422.2253,422.2253,0.929688867,-0.391501557,0,0,0,,0,125,125,332,1,,,,
,,,,,,edd8ac93b2254abe5ddbfa3a,66a626ef09d4e21e1a8894ec,67360fd80393f6a0a77a7d41,2024-11-14_08h57.44.951,Tarea de género gramatical,2024.2.2,Win32,59.88023952,,,,,,,,,,,,,,,,,,,,,,,,422.2259,423.3086,l,1,0.4026,,[],[],[],[],[],[],[],0.4026,1,423.3086,423.8085,,,,,,740,FEM,DIS,150,cabra,el,a,423.8086,423.8086,0.929688867,-0.391501557,0,0,0,,0,126,126,289,1,,,,
,,,,,,edd8ac93b2254abe5ddbfa3a,66a626ef09d4e21e1a8894ec,67360fd80393f6a0a77a7d41,2024-11-14_08h57.44.951,Tarea de género gramatical,2024.2.2,Win32,59.88023952,,,,,,,,,,,,,,,,,,,,,,,,423.8091,424.8918,a,1,0.4078,,[],[],[],[],[],[],[],0.4078,1,424.8919,425.3918,,,,,,473,MAS,DIS,150,rato,la,l,425.3918,425.3919,0.929688867,-0.391501557,0,0,0,,0,127,127,22,1,,,,
,,,,,,edd8ac93b2254abe5ddbfa3a,66a626ef09d4e21e1a8894ec,67360fd80393f6a0a77a7d41,2024-11-14_08h57.44.951,Tarea de género gramatical,2024.2.2,Win32,59.88023952,,,,,,,,,,,,,,,,,,,,,,,,425.3923,426.675,l,1,0.6001,,[],[],[],[],[],[],[],0.6001,1,426.6751,427.1751,,,,,,662,FEM,DIS,150,cinta,el,a,427.1755,427.1759,0.929688867,-0.391501557,0,0,0,,0,128,128,211,1,,,,
,,,,,,edd8ac93b2254abe5ddbfa3a,66a626ef09d4e21e1a8894ec,67360fd80393f6a0a77a7d41,2024-11-14_08h57.44.951,Tarea de género gramatical,2024.2.2,Win32,59.88023952,,,,,,,,,,,,,,,,,,,,,,,,427.1762,428.2084,l,1,0.3511,,[],[],[],[],[],[],[],0.3511,1,428.2084,428.7083,,,,,,680,FEM,DIS,150,regla,el,a,428.7083,428.7083,0.929688867,-0.391501557,0,0,0,,0,129,129,229,1,,,,
,,,,,,edd8ac93b2254abe5ddbfa3a,66a626ef09d4e21e1a8894ec,67360fd80393f6a0a77a7d41,2024-11-14_08h57.44.951,Tarea de género gramatical,2024.2.2,Win32,59.88023952,,,,,,,,,,,,,,,,,,,,,,,,428.7087,429.7415,a,0,0.3586,,[],[],[],[],[],[],[],0.3586,0,429.7419,430.2415,,,,,,572,FEM,DIS,150,loca,el,a,430.2416,430.2416,0.929688867,-0.391501557,0,0,0,,0,130,130,121,1,,,,
,,,,,,edd8ac93b2254abe5ddbfa3a,66a626ef09d4e21e1a8894ec,67360fd80393f6a0a77a7d41,2024-11-14_08h57.44.951,Tarea de género gramatical,2024.2.2,Win32,59.88023952,,,,,,,,,,,,,,,,,,,,,,,,430.2422,431.4416,a,1,0.5188,,[],[],[],[],[],[],[],0.5188,1,431.4419,431.9413,,,,,,460,MAS,CON,150,niño,,l,431.9413,431.9414,0.929688867,-0.391501557,0,0,0,,0,131,131,9,1,,,,
,,,,,,edd8ac93b2254abe5ddbfa3a,66a626ef09d4e21e1a8894ec,67360fd80393f6a0a77a7d41,2024-11-14_08h57.44.951,Tarea de género gramatical,2024.2.2,Win32,59.88023952,,,,,,,,,,,,,,,,,,,,,,,,431.9418,433.2413,l,1,0.6169,,[],[],[],[],[],[],[],0.6169,1,433.2414,433.7413,,,,,,897,FEM,AGR,150,lógica,la,a,433.7418,433.7422,0.929688867,-0.391501557,0,0,0,,0,132,132,446,1,,,,
,,,,,,edd8ac93b2254abe5ddbfa3a,66a626ef09d4e21e1a8894ec,67360fd80393f6a0a77a7d41,2024-11-14_08h57.44.951,Tarea de género gramatical,2024.2.2,Win32,59.88023952,,,,,,,,,,,,,,,,,,,,,,,,433.7425,434.9579,l,1,0.5469,,[],[],[],[],[],[],[],0.5469,1,434.9579,435.4578,,,,,,789,FEM,AGR,150,salida,la,a,435.4578,435.4579,0.929688867,-0.391501557,0,0,0,,0,133,133,338,1,,,,
,,,,,,edd8ac93b2254abe5ddbfa3a,66a626ef09d4e21e1a8894ec,67360fd80393f6a0a77a7d41,2024-11-14_08h57.44.951,Tarea de género gramatical,2024.2.2,Win32,59.88023952,,,,,,,,,,,,,,,,,,,,,,,,435.4583,436.5079,a,1,0.3682,,[],[],[],[],[],[],[],0.3682,1,436.5079,437.0076,,,,,,814,MAS,CON,150,viento,,l,437.0077,437.0077,0.929688867,-0.391501557,0,0,0,,0,134,134,363,1,,,,
,,,,,,edd8ac93b2254abe5ddbfa3a,66a626ef09d4e21e1a8894ec,67360fd80393f6a0a77a7d41,2024-11-14_08h57.44.951,Tarea de género gramatical,2024.2.2,Win32,59.88023952,,,,,,,,,,,,,,,,,,,,,,,,437.0082,438.341,a,1,0.6571,,[],[],[],[],[],[],[],0.6571,1,438.341,438.841,,,,,,485,MAS,DIS,150,taxi,la,l,438.841,438.841,0.929688867,-0.391501557,0,0,0,,0,135,135,34,1,,,,
,,,,,,edd8ac93b2254abe5ddbfa3a,66a626ef09d4e21e1a8894ec,67360fd80393f6a0a77a7d41,2024-11-14_08h57.44.951,Tarea de género gramatical,2024.2.2,Win32,59.88023952,,,,,,,,,,,,,,,,,,,,,,,,438.8415,440.0909,l,1,0.5723,,[],[],[],[],[],[],[],0.5723,1,440.0909,440.5908,,,,,,603,FEM,AGR,150,mujer,la,a,440.5908,440.5909,0.929688867,-0.391501557,0,0,0,,0,136,136,152,1,,,,
,,,,,,edd8ac93b2254abe5ddbfa3a,66a626ef09d4e21e1a8894ec,67360fd80393f6a0a77a7d41,2024-11-14_08h57.44.951,Tarea de género gramatical,2024.2.2,Win32,59.88023952,,,,,,,,,,,,,,,,,,,,,,,,440.5913,441.674,a,1,0.4121,,[],[],[],[],[],[],[],0.4121,1,441.6741,442.174,,,,,,766,MAS,CON,150,cuerpo,,l,442.1745,442.1748,0.929688867,-0.391501557,0,0,0,,0,137,137,315,1,,,,
,,,,,,edd8ac93b2254abe5ddbfa3a,66a626ef09d4e21e1a8894ec,67360fd80393f6a0a77a7d41,2024-11-14_08h57.44.951,Tarea de género gramatical,2024.2.2,Win32,59.88023952,,,,,,,,,,,,,,,,,,,,,,,,442.1752,443.174,l,1,0.3208,,[],[],[],[],[],[],[],0.3208,1,443.174,443.674,,,,,,775,FEM,CON,150,tierra,,a,443.674,443.674,0.929688867,-0.391501557,0,0,0,,0,138,138,324,1,,,,
,,,,,,edd8ac93b2254abe5ddbfa3a,66a626ef09d4e21e1a8894ec,67360fd80393f6a0a77a7d41,2024-11-14_08h57.44.951,Tarea de género gramatical,2024.2.2,Win32,59.88023952,,,,,,,,,,,,,,,,,,,,,,,,443.6744,444.7906,a,1,0.4402,,[],[],[],[],[],[],[],0.4402,1,444.7906,445.2905,,,,,,802,MAS,CON,150,estilo,,l,445.2905,445.2906,0.929688867,-0.391501557,0,0,0,,0,139,139,351,1,,,,
,,,,,,edd8ac93b2254abe5ddbfa3a,66a626ef09d4e21e1a8894ec,67360fd80393f6a0a77a7d41,2024-11-14_08h57.44.951,Tarea de género gramatical,2024.2.2,Win32,59.88023952,,,,,,,,,,,,,,,,,,,,,,,,445.291,446.357,l,1,0.3833,,[],[],[],[],[],[],[],0.3833,1,446.3571,446.8571,,,,,,511,FEM,CON,150,ruta,,a,446.8571,446.8572,0.929688867,-0.391501557,0,0,0,,0,140,140,60,1,,,,
,,,,,,edd8ac93b2254abe5ddbfa3a,66a626ef09d4e21e1a8894ec,67360fd80393f6a0a77a7d41,2024-11-14_08h57.44.951,Tarea de género gramatical,2024.2.2,Win32,59.88023952,,,,,,,,,,,,,,,,,,,,,,,,446.8577,448.0403,l,1,0.5001,,[],[],[],[],[],[],[],0.5001,1,448.0404,448.5403,,,,,,830,FEM,DIS,150,madera,el,a,448.5408,448.5411,0.929688867,-0.391501557,0,0,0,,0,141,141,379,1,,,,
,,,,,,edd8ac93b2254abe5ddbfa3a,66a626ef09d4e21e1a8894ec,67360fd80393f6a0a77a7d41,2024-11-14_08h57.44.951,Tarea de género gramatical,2024.2.2,Win32,59.88023952,,,,,,,,,,,,,,,,,,,,,,,,448.5414,449.5402,l,1,0.3295,,[],[],[],[],[],[],[],0.3295,1,449.5402,450.0402,,,,,,639,FEM,AGR,150,pista,la,a,450.0403,450.0403,0.929688867,-0.391501557,0,0,0,,0,142,142,188,1,,,,
,,,,,,edd8ac93b2254abe5ddbfa3a,66a626ef09d4e21e1a8894ec,67360fd80393f6a0a77a7d41,2024-11-14_08h57.44.951,Tarea de género gramatical,2024.2.2,Win32,59.88023952,,,,,,,,,,,,,,,,,,,,,,,,450.0407,451.1235,l,1,0.3997,,[],[],[],[],[],[],[],0.3997,1,451.1235,451.6235,,,,,,739,FEM,CON,150,tabla,,a,451.6235,451.6235,0.929688867,-0.391501557,0,0,0,,0,143,143,288,1,,,,
,,,,,,edd8ac93b2254abe5ddbfa3a,66a626ef09d4e21e1a8894ec,67360fd80393f6a0a77a7d41,2024-11-14_08h57.44.951,Tarea de género gramatical,2024.2.2,Win32,59.88023952,,,,,,,,,,,,,,,,,,,,,,,,451.624,452.9234,a,1,0.6223,,[],[],[],[],[],[],[],0.6223,1,452.9234,453.4233,,,,,,558,MAS,AGR,150,hilo,el,l,453.4233,453.4234,0.929688867,-0.391501557,0,0,0,,0,144,144,107,1,,,,
,,,,,,edd8ac93b2254abe5ddbfa3a,66a626ef09d4e21e1a8894ec,67360fd80393f6a0a77a7d41,2024-11-14_08h57.44.951,Tarea de género gramatical,2024.2.2,Win32,59.88023952,,,,,,,,,,,,,,,,,,,,,,,,453.4238,454.4566,l,1,0.3635,,[],[],[],[],[],[],[],0.3635,1,454.4567,454.9567,,,,,,625,FEM,CON,150,señal,,a,454.9568,454.9568,0.929688867,-0.391501557,0,0,0,,0,145,145,174,1,,,,
,,,,,,edd8ac93b2254abe5ddbfa3a,66a626ef09d4e21e1a8894ec,67360fd80393f6a0a77a7d41,2024-11-14_08h57.44.951,Tarea de género gramatical,2024.2.2,Win32,59.88023952,,,,,,,,,,,,,,,,,,,,,,,,454.9572,456.0065,l,1,0.3704,,[],[],[],[],[],[],[],0.3704,1,456.0065,456.5064,,,,,,843,FEM,AGR,150,alarma,la,a,456.507,456.5073,0.929688867,-0.391501557,0,0,0,,0,146,146,392,1,,,,
,,,,,,edd8ac93b2254abe5ddbfa3a,66a626ef09d4e21e1a8894ec,67360fd80393f6a0a77a7d41,2024-11-14_08h57.44.951,Tarea de género gramatical,2024.2.2,Win32,59.88023952,,,,,,,,,,,,,,,,,,,,,,,,456.5075,457.5564,a,1,0.3725,,[],[],[],[],[],[],[],0.3725,1,457.5565,458.0563,,,,,,528,MAS,AGR,150,oído,el,l,458.0563,458.0564,0.929688867,-0.391501557,0,0,0,,0,147,147,77,1,,,,
,,,,,,edd8ac93b2254abe5ddbfa3a,66a626ef09d4e21e1a8894ec,67360fd80393f6a0a77a7d41,2024-11-14_08h57.44.951,Tarea de género gramatical,2024.2.2,Win32,59.88023952,,,,,,,,,,,,,,,,,,,,,,,,458.0569,459.2229,a,1,0.4834,,[],[],[],[],[],[],[],0.4834,1,459.223,459.723,,,,,,509,MAS,DIS,150,lobo,la,l,459.723,459.723,0.929688867,-0.391501557,0,0,0,,0,148,148,58,1,,,,
,,,,,,edd8ac93b2254abe5ddbfa3a,66a626ef09d4e21e1a8894ec,67360fd80393f6a0a77a7d41,2024-11-14_08h57.44.951,Tarea de género gramatical,2024.2.2,Win32,59.88023952,,,,,,,,,,,,,,,,,,,,,,,,459.7235,461.0229,a,1,0.6231,,[],[],[],[],[],[],[],0.6231,1,461.0229,461.5228,,,,,,852,MAS,AGR,150,ladrón,el,l,461.5228,461.5228,0.929688867,-0.391501557,0,0,0,,0,149,149,401,1,,,,
,,,,,,edd8ac93b2254abe5ddbfa3a,66a626ef09d4e21e1a8894ec,67360fd80393f6a0a77a7d41,2024-11-14_08h57.44.951,Tarea de género gramatical,2024.2.2,Win32,59.88023952,,,,,,,,,,,,,,,,,,,,,,,,461.5233,462.6727,l,1,0.4723,,[],[],[],[],[],[],[],0.4723,1,462.6727,463.1726,,,,,,860,FEM,DIS,150,piedad,el,a,463.1732,632.5619,0.93616916,-0.493334551,0,0,0,space,0,150,150,409,1,169.3668,,,
,,,,,,edd8ac93b2254abe5ddbfa3a,66a626ef09d4e21e1a8894ec,67360fd80393f6a0a77a7d41,2024-11-14_08h57.44.951,Tarea de género gramatical,2024.2.2,Win32,59.88023952,,,,,,,,,,,,,,,,,,,,,,,,632.5624,633.8452,a,1,0.613,,[],[],[],[],[],[],[],0.613,1,633.8452,634.345,,,,,,461,MAS,DIS,150,país,la,l,634.345,634.3451,0.93616916,-0.493334551,0,0,0,,0,151,151,10,1,,,,
,,,,,,edd8ac93b2254abe5ddbfa3a,66a626ef09d4e21e1a8894ec,67360fd80393f6a0a77a7d41,2024-11-14_08h57.44.951,Tarea de género gramatical,2024.2.2,Win32,59.88023952,,,,,,,,,,,,,,,,,,,,,,,,634.3455,635.495,a,1,0.4746,,[],[],[],[],[],[],[],0.4746,1,635.4951,635.9949,,,,,,568,MAS,CON,150,baúl,,l,635.9949,635.995,0.93616916,-0.493334551,0,0,0,,0,152,152,117,1,,,,
,,,,,,edd8ac93b2254abe5ddbfa3a,66a626ef09d4e21e1a8894ec,67360fd80393f6a0a77a7d41,2024-11-14_08h57.44.951,Tarea de género gramatical,2024.2.2,Win32,59.88023952,,,,,,,,,,,,,,,,,,,,,,,,635.9955,637.8782,l,1,1.2069,,[],[],[],[],[],[],[],1.2069,1,637.8782,638.3782,,,,,,500,FEM,DIS,150,dama,el,a,638.3782,638.3782,0.93616916,-0.493334551,0,0,0,,0,153,153,49,1,,,,
,,,,,,edd8ac93b2254abe5ddbfa3a,66a626ef09d4e21e1a8894ec,67360fd80393f6a0a77a7d41,2024-11-14_08h57.44.951,Tarea de género gramatical,2024.2.2,Win32,59.88023952,,,,,,,,,,,,,,,,,,,,,,,,638.3786,639.5114,a,1,0.4604,,[],[],[],[],[],[],[],0.4604,1,639.5114,640.0113,,,,,,538,MAS,CON,150,pavo,,l,640.0114,640.0114,0.93616916,-0.493334551,0,0,0,,0,154,154,87,1,,,,
,,,,,,edd8ac93b2254abe5ddbfa3a,66a626ef09d4e21e1a8894ec,67360fd80393f6a0a77a7d41,2024-11-14_08h57.44.951,Tarea de género gramatical,2024.2.2,Win32,59.88023952,,,,,,,,,,,,,,,,,,,,,,,,640.0119,641.078,a,0,0.3848,,[],[],[],[],[],[],[],0.3848,0,641.0783,641.578,,,,,,685,FEM,CON,150,torre,,a,641.5784,641.5788,0.93616916,-0.493334551,0,0,0,,0,155,155,234,1,,,,
,,,,,,edd8ac93b2254abe5ddbfa3a,66a626ef09d4e21e1a8894ec,67360fd80393f6a0a77a7d41,2024-11-14_08h57.44.951,Tarea de género gramatical,2024.2.2,Win32,59.88023952,,,,,,,,,,,,,,,,,,,,,,,,641.5791,642.5447,a,1,0.2866,,[],[],[],[],[],[],[],0.2866,1,642.5451,643.0445,,,,,,642,MAS,AGR,150,grupo,el,l,643.0445,643.0445,0.93616916,-0.493334551,0,0,0,,0,156,156,191,1,,,,
,,,,,,edd8ac93b2254abe5ddbfa3a,66a626ef09d4e21e1a8894ec,67360fd80393f6a0a77a7d41,2024-11-14_08h57.44.951,Tarea de género gramatical,2024.2.2,Win32,59.88023952,,,,,,,,,,,,,,,,,,,,,,,,643.045,644.1278,a,1,0.4095,,[],[],[],[],[],[],[],0.4095,1,644.1278,644.6277,,,,,,754,MAS,CON,150,tiempo,,l,644.6278,644.6278,0.93616916,-0.493334551,0,0,0,,0,157,157,303,1,,,,
,,,,,,edd8ac93b2254abe5ddbfa3a,66a626ef09d4e21e1a8894ec,67360fd80393f6a0a77a7d41,2024-11-14_08h57.44.951,Tarea de género gramatical,2024.2.2,Win32,59.88023952,,,,,,,,,,,,,,,,,,,,,,,,644.6282,645.5777,l,1,0.2719,,[],[],[],[],[],[],[],0.2719,1,645.5777,646.0777,,,,,,818,FEM,DIS,150,gracia,el,a,646.0777,646.0777,0.93616916,-0.493334551,0,0,0,,0,158,158,367,1,,,,
,,,,,,edd8ac93b2254abe5ddbfa3a,66a626ef09d4e21e1a8894ec,67360fd80393f6a0a77a7d41,2024-11-14_08h57.44.951,Tarea de género gramatical,2024.2.2,Win32,59.88023952,,,,,,,,,,,,,,,,,,,,,,,,646.0782,647.0776,a,1,0.33,,[],[],[],[],[],[],[],0.33,1,647.0776,647.5775,,,,,,767,MAS,DIS,150,número,la,l,647.5781,647.5784,0.93616916,-0.493334551,0,0,0,,0,159,159,316,1,,,,
,,,,,,edd8ac93b2254abe5ddbfa3a,66a626ef09d4e21e1a8894ec,67360fd80393f6a0a77a7d41,2024-11-14_08h57.44.951,Tarea de género gramatical,2024.2.2,Win32,59.88023952,,,,,,,,,,,,,,,,,,,,,,,,647.5787,648.4275,l,0,0.1781,,[],[],[],[],[],[],[],0.1781,0,648.4278,648.9275,,,,,,798,MAS,AGR,150,anillo,el,l,648.9275,648.9275,0.93616916,-0.493334551,0,0,0,,0,160,160,347,1,,,,
,,,,,,edd8ac93b2254abe5ddbfa3a,66a626ef09d4e21e1a8894ec,67360fd80393f6a0a77a7d41,2024-11-14_08h57.44.951,Tarea de género gramatical,2024.2.2,Win32,59.88023952,,,,,,,,,,,,,,,,,,,,,,,,648.9279,649.6942,a,0,0.0941,,[],[],[],[],[],[],[],0.0941,0,649.6942,650.1941,,,,,,541,FEM,CON,150,hoja,,a,650.1941,650.1941,0.93616916,-0.493334551,0,0,0,,0,161,161,90,1,,,,
,,,,,,edd8ac93b2254abe5ddbfa3a,66a626ef09d4e21e1a8894ec,67360fd80393f6a0a77a7d41,2024-11-14_08h57.44.951,Tarea de género gramatical,2024.2.2,Win32,59.88023952,,,,,,,,,,,,,,,,,,,,,,,,650.1946,651.2107,a,1,0.3384,,[],[],[],[],[],[],[],0.3384,1,651.2111,651.7107,,,,,,714,MAS,AGR,150,pollo,el,l,651.7107,651.7107,0.93616916,-0.493334551,0,0,0,,0,162,162,263,1,,,,
,,,,,,edd8ac93b2254abe5ddbfa3a,66a626ef09d4e21e1a8894ec,67360fd80393f6a0a77a7d41,2024-11-14_08h57.44.951,Tarea de género gramatical,2024.2.2,Win32,59.88023952,,,,,,,,,,,,,,,,,,,,,,,,651.7112,652.7439,l,1,0.3519,,[],[],[],[],[],[],[],0.3519,1,652.7439,653.2439,,,,,,571,FEM,CON,150,pila,,a,653.2439,653.2439,0.93616916,-0.493334551,0,0,0,,0,163,163,120,1,,,,
,,,,,,edd8ac93b2254abe5ddbfa3a,66a626ef09d4e21e1a8894ec,67360fd80393f6a0a77a7d41,2024-11-14_08h57.44.951,Tarea de género gramatical,2024.2.2,Win32,59.88023952,,,,,,,,,,,,,,,,,,,,,,,,653.2445,654.3438,a,1,0.4168,,[],[],[],[],[],[],[],0.4168,1,654.3438,654.8438,,,,,,869,MAS,DIS,150,cuento,la,l,654.8443,654.8446,0.93616916,-0.493334551,0,0,0,,0,164,164,418,1,,,,
,,,,,,edd8ac93b2254abe5ddbfa3a,66a626ef09d4e21e1a8894ec,67360fd80393f6a0a77a7d41,2024-11-14_08h57.44.951,Tarea de género gramatical,2024.2.2,Win32,59.88023952,,,,,,,,,,,,,,,,,,,,,,,,654.8449,655.8771,a,0,0.3519,,[],[],[],[],[],[],[],0.3519,0,655.8774,656.377,,,,,,703,FEM,CON,150,aldea,,a,656.377,656.377,0.93616916,-0.493334551,0,0,0,,0,165,165,252,1,,,,
,,,,,,edd8ac93b2254abe5ddbfa3a,66a626ef09d4e21e1a8894ec,67360fd80393f6a0a77a7d41,2024-11-14_08h57.44.951,Tarea de género gramatical,2024.2.2,Win32,59.88023952,,,,,,,,,,,,,,,,,,,,,,,,656.3777,657.3936,a,1,0.3328,,[],[],[],[],[],[],[],0.3328,1,657.394,657.8935,,,,,,684,MAS,AGR,150,héroe,el,l,657.8935,657.8936,0.93616916,-0.493334551,0,0,0,,0,166,166,233,1,,,,
,,,,,,edd8ac93b2254abe5ddbfa3a,66a626ef09d4e21e1a8894ec,67360fd80393f6a0a77a7d41,2024-11-14_08h57.44.951,Tarea de género gramatical,2024.2.2,Win32,59.88023952,,,,,,,,,,,,,,,,,,,,,,,,657.8941,658.9435,a,1,0.3757,,[],[],[],[],[],[],[],0.3757,1,658.9435,659.4435,,,,,,576,MAS,AGR,150,lazo,el,l,659.4435,659.4435,0.93616916,-0.493334551,0,0,0,,0,167,167,125,1,,,,
,,,,,,edd8ac93b2254abe5ddbfa3a,66a626ef09d4e21e1a8894ec,67360fd80393f6a0a77a7d41,2024-11-14_08h57.44.951,Tarea de género gramatical,2024.2.2,Win32,59.88023952,,,,,,,,,,,,,,,,,,,,,,,,659.444,660.2434,a,1,0.1232,,[],[],[],[],[],[],[],0.1232,1,660.2435,660.7434,,,,,,856,MAS,CON,150,premio,,l,660.744,660.7443,0.93616916,-0.493334551,0,0,0,,0,168,168,405,1,,,,
,,,,,,edd8ac93b2254abe5ddbfa3a,66a626ef09d4e21e1a8894ec,67360fd80393f6a0a77a7d41,2024-11-14_08h57.44.951,Tarea de género gramatical,2024.2.2,Win32,59.88023952,,,,,,,,,,,,,,,,,,,,,,,,660.7447,661.51,l,0,0.0885,,[],[],[],[],[],[],[],0.0885,0,661.5104,662.01,,,,,,533,MAS,DIS,150,nene,la,l,662.01,662.01,0.93616916,-0.493334551,0,0,0,,0,169,169,82,1,,,,
,,,,,,edd8ac93b2254abe5ddbfa3a,66a626ef09d4e21e1a8894ec,67360fd80393f6a0a77a7d41,2024-11-14_08h57.44.951,Tarea de género gramatical,2024.2.2,Win32,59.88023952,,,,,,,,,,,,,,,,,,,,,,,,662.0105,663.5599,a,1,0.8666,,[],[],[],[],[],[],[],0.8666,1,663.5602,664.0598,,,,,,870,MAS,AGR,150,helado,el,l,664.0598,664.0599,0.93616916,-0.493334551,0,0,0,,0,170,170,419,1,,,,
,,,,,,edd8ac93b2254abe5ddbfa3a,66a626ef09d4e21e1a8894ec,67360fd80393f6a0a77a7d41,2024-11-14_08h57.44.951,Tarea de género gramatical,2024.2.2,Win32,59.88023952,,,,,,,,,,,,,,,,,,,,,,,,664.0603,665.3097,a,1,0.5749,,[],[],[],[],[],[],[],0.5749,1,665.3098,665.8097,,,,,,634,MAS,CON,150,cielo,,l,665.8097,665.8098,0.93616916,-0.493334551,0,0,0,,0,171,171,183,1,,,,
,,,,,,edd8ac93b2254abe5ddbfa3a,66a626ef09d4e21e1a8894ec,67360fd80393f6a0a77a7d41,2024-11-14_08h57.44.951,Tarea de género gramatical,2024.2.2,Win32,59.88023952,,,,,,,,,,,,,,,,,,,,,,,,665.8102,666.743,a,0,0.253,,[],[],[],[],[],[],[],0.253,0,666.7433,667.243,,,,,,751,FEM,CON,150,verdad,,a,667.243,667.243,0.93616916,-0.493334551,0,0,0,,0,172,172,300,1,,,,
,,,,,,edd8ac93b2254abe5ddbfa3a,66a626ef09d4e21e1a8894ec,67360fd80393f6a0a77a7d41,2024-11-14_08h57.44.951,Tarea de género gramatical,2024.2.2,Win32,59.88023952,,,,,,,,,,,,,,,,,,,,,,,,667.2435,668.2595,a,1,0.3333,,[],[],[],[],[],[],[],0.3333,1,668.26,668.7595,,,,,,720,MAS,AGR,150,queso,el,l,668.76,668.7604,0.93616916,-0.493334551,0,0,0,,0,173,173,269,1,,,,
,,,,,,edd8ac93b2254abe5ddbfa3a,66a626ef09d4e21e1a8894ec,67360fd80393f6a0a77a7d41,2024-11-14_08h57.44.951,Tarea de género gramatical,2024.2.2,Win32,59.88023952,,,,,,,,,,,,,,,,,,,,,,,,668.7607,669.8928,l,1,0.4634,,[],[],[],[],[],[],[],0.4634,1,669.8928,670.3928,,,,,,883,FEM,CON,150,huella,,a,670.3928,670.3928,0.93616916,-0.493334551,0,0,0,,0,174,174,432,1,,,,
,,,,,,edd8ac93b2254abe5ddbfa3a,66a626ef09d4e21e1a8894ec,67360fd80393f6a0a77a7d41,2024-11-14_08h57.44.951,Tarea de género gramatical,2024.2.2,Win32,59.88023952,,,,,,,,,,,,,,,,,,,,,,,,670.3933,671.5093,a,0,0.446,,[],[],[],[],[],[],[],0.446,0,671.5096,672.0093,,,,,,591,FEM,AGR,150,cera,la,a,672.0093,672.0093,0.93616916,-0.493334551,0,0,0,,0,175,175,140,1,,,,
,,,,,,edd8ac93b2254abe5ddbfa3a,66a626ef09d4e21e1a8894ec,67360fd80393f6a0a77a7d41,2024-11-14_08h57.44.951,Tarea de género gramatical,2024.2.2,Win32,59.88023952,,,,,,,,,,,,,,,,,,,,,,,,672.0098,672.8593,l,0,0.1714,,[],[],[],[],[],[],[],0.1714,0,672.8594,673.3592,,,,,,606,MAS,AGR,150,amigo,el,l,673.3592,673.3593,0.93616916,-0.493334551,0,0,0,,0,176,176,155,1,,,,
,,,,,,edd8ac93b2254abe5ddbfa3a,66a626ef09d4e21e1a8894ec,67360fd80393f6a0a77a7d41,2024-11-14_08h57.44.951,Tarea de género gramatical,2024.2.2,Win32,59.88023952,,,,,,,,,,,,,,,,,,,,,,,,673.3597,674.4258,l,1,0.3833,,[],[],[],[],[],[],[],0.3833,1,674.4261,674.9258,,,,,,607,FEM,CON,150,madre,,a,674.9263,674.9266,0.93616916,-0.493334551,0,0,0,,0,177,177,156,1,,,,
,,,,,,edd8ac93b2254abe5ddbfa3a,66a626ef09d4e21e1a8894ec,67360fd80393f6a0a77a7d41,2024-11-14_08h57.44.951,Tarea de género gramatical,2024.2.2,Win32,59.88023952,,,,,,,,,,,,,,,,,,,,,,,,674.9269,675.9425,a,1,0.3381,,[],[],[],[],[],[],[],0.3381,1,675.9425,676.4423,,,,,,618,MAS,AGR,150,sitio,el,l,676.4423,676.4424,0.93616916,-0.493334551,0,0,0,,0,178,178,167,1,,,,
,,,,,,edd8ac93b2254abe5ddbfa3a,66a626ef09d4e21e1a8894ec,67360fd80393f6a0a77a7d41,2024-11-14_08h57.44.951,Tarea de género gramatical,2024.2.2,Win32,59.88023952,,,,,,,,,,,,,,,,,,,,,,,,676.4429,677.5592,a,1,0.4384,,[],[],[],[],[],[],[],0.4384,1,677.5592,678.059,,,,,,845,MAS,DIS,150,correo,la,l,678.059,678.059,0.93616916,-0.493334551,0,0,0,,0,179,179,394,1,,,,
,,,,,,edd8ac93b2254abe5ddbfa3a,66a626ef09d4e21e1a8894ec,67360fd80393f6a0a77a7d41,2024-11-14_08h57.44.951,Tarea de género gramatical,2024.2.2,Win32,59.88023952,,,,,,,,,,,,,,,,,,,,,,,,678.0595,679.0422,l,1,0.3053,,[],[],[],[],[],[],[],0.3053,1,679.0423,679.5422,,,,,,577,FEM,CON,150,cuna,,a,679.5422,679.5422,0.93616916,-0.493334551,0,0,0,,0,180,180,126,1,,,,
,,,,,,edd8ac93b2254abe5ddbfa3a,66a626ef09d4e21e1a8894ec,67360fd80393f6a0a77a7d41,2024-11-14_08h57.44.951,Tarea de género gramatical,2024.2.2,Win32,59.88023952,,,,,,,,,,,,,,,,,,,,,,,,679.5427,680.5588,a,1,0.3366,,[],[],[],[],[],[],[],0.3366,1,680.5588,681.0588,,,,,,833,MAS,DIS,150,parque,la,l,681.0588,681.0589,0.93616916,-0.493334551,0,0,0,,0,181,181,382,1,,,,
,,,,,,edd8ac93b2254abe5ddbfa3a,66a626ef09d4e21e1a8894ec,67360fd80393f6a0a77a7d41,2024-11-14_08h57.44.951,Tarea de género gramatical,2024.2.2,Win32,59.88023952,,,,,,,,,,,,,,,,,,,,,,,,681.0593,682.1587,a,1,0.4199,,[],[],[],[],[],[],[],0.4199,1,682.1587,682.6587,,,,,,520,MAS,CON,150,palo,,l,682.6591,682.6594,0.93616916,-0.493334551,0,0,0,,0,182,182,69,1,,,,
,,,,,,edd8ac93b2254abe5ddbfa3a,66a626ef09d4e21e1a8894ec,67360fd80393f6a0a77a7d41,2024-11-14_08h57.44.951,Tarea de género gramatical,2024.2.2,Win32,59.88023952,,,,,,,,,,,,,,,,,,,,,,,,682.6597,683.7752,a,1,0.4338,,[],[],[],[],[],[],[],0.4338,1,683.7752,684.2752,,,,,,630,MAS,AGR,150,fuego,el,l,684.2753,684.2753,0.93616916,-0.493334551,0,0,0,,0,183,183,179,1,,,,
,,,,,,edd8ac93b2254abe5ddbfa3a,66a626ef09d4e21e1a8894ec,67360fd80393f6a0a77a7d41,2024-11-14_08h57.44.951,Tarea de género gramatical,2024.2.2,Win32,59.88023952,,,,,,,,,,,,,,,,,,,,,,,,684.2757,685.6251,l,1,0.6789,,[],[],[],[],[],[],[],0.6789,1,685.6251,686.1251,,,,,,637,FEM,CON,150,lista,,a,686.1251,686.1251,0.93616916,-0.493334551,0,0,0,,0,184,184,186,1,,,,
,,,,,,edd8ac93b2254abe5ddbfa3a,66a626ef09d4e21e1a8894ec,67360fd80393f6a0a77a7d41,2024-11-14_08h57.44.951,Tarea de género gramatical,2024.2.2,Win32,59.88023952,,,,,,,,,,,,,,,,,,,,,,,,686.1256,687.1417,a,1,0.3348,,[],[],[],[],[],[],[],0.3348,1,687.1418,687.6416,,,,,,748,MAS,CON,150,botón,,l,687.6417,687.6417,0.93616916,-0.493334551,0,0,0,,0,185,185,297,1,,,,
,,,,,,edd8ac93b2254abe5ddbfa3a,66a626ef09d4e21e1a8894ec,67360fd80393f6a0a77a7d41,2024-11-14_08h57.44.951,Tarea de género gramatical,2024.2.2,Win32,59.88023952,,,,,,,,,,,,,,,,,,,,,,,,687.6422,688.9082,l,0,0.5941,,[],[],[],[],[],[],[],0.5941,0,688.9086,689.4084,,,,,,575,MAS,DIS,150,bate,la,l,689.4089,689.4092,0.93616916,-0.493334551,0,0,0,,0,186,186,124,1,,,,
,,,,,,edd8ac93b2254abe5ddbfa3a,66a626ef09d4e21e1a8894ec,67360fd80393f6a0a77a7d41,2024-11-14_08h57.44.951,Tarea de género gramatical,2024.2.2,Win32,59.88023952,,,,,,,,,,,,,,,,,,,,,,,,689.4096,690.5248,a,0,0.4463,,[],[],[],[],[],[],[],0.4463,0,690.5248,691.025,,,,,,841,FEM,CON,150,altura,,a,691.025,691.0251,0.93616916,-0.493334551,0,0,0,,0,187,187,390,1,,,,
,,,,,,edd8ac93b2254abe5ddbfa3a,66a626ef09d4e21e1a8894ec,67360fd80393f6a0a77a7d41,2024-11-14_08h57.44.951,Tarea de género gramatical,2024.2.2,Win32,59.88023952,,,,,,,,,,,,,,,,,,,,,,,,691.0254,692.208,l,1,0.513,,[],[],[],[],[],[],[],0.513,1,692.2084,692.708,,,,,,632,FEM,DIS,150,prisa,el,a,692.708,692.708,0.93616916,-0.493334551,0,0,0,,0,188,188,181,1,,,,
,,,,,,edd8ac93b2254abe5ddbfa3a,66a626ef09d4e21e1a8894ec,67360fd80393f6a0a77a7d41,2024-11-14_08h57.44.951,Tarea de género gramatical,2024.2.2,Win32,59.88023952,,,,,,,,,,,,,,,,,,,,,,,,692.7085,693.9079,a,1,0.5265,,[],[],[],[],[],[],[],0.5265,1,693.9079,694.4079,,,,,,755,MAS,DIS,150,hombre,la,l,694.4079,694.4079,0.93616916,-0.493334551,0,0,0,,0,189,189,304,1,,,,
,,,,,,edd8ac93b2254abe5ddbfa3a,66a626ef09d4e21e1a8894ec,67360fd80393f6a0a77a7d41,2024-11-14_08h57.44.951,Tarea de género gramatical,2024.2.2,Win32,59.88023952,,,,,,,,,,,,,,,,,,,,,,,,694.4084,695.6246,a,0,0.5378,,[],[],[],[],[],[],[],0.5378,0,695.625,696.1245,,,,,,602,FEM,DIS,150,gente,el,a,696.1245,696.1246,0.93616916,-0.493334551,0,0,0,,0,190,190,151,1,,,,
,,,,,,edd8ac93b2254abe5ddbfa3a,66a626ef09d4e21e1a8894ec,67360fd80393f6a0a77a7d41,2024-11-14_08h57.44.951,Tarea de género gramatical,2024.2.2,Win32,59.88023952,,,,,,,,,,,,,,,,,,,,,,,,696.1251,697.2577,l,1,0.4627,,[],[],[],[],[],[],[],0.4627,1,697.2581,697.7577,,,,,,817,FEM,CON,150,teoría,,a,697.7582,697.7586,0.93616916,-0.493334551,0,0,0,,0,191,191,366,1,,,,
,,,,,,edd8ac93b2254abe5ddbfa3a,66a626ef09d4e21e1a8894ec,67360fd80393f6a0a77a7d41,2024-11-14_08h57.44.951,Tarea de género gramatical,2024.2.2,Win32,59.88023952,,,,,,,,,,,,,,,,,,,,,,,,697.7588,698.8745,a,1,0.437,,[],[],[],[],[],[],[],0.437,1,698.8746,699.3742,,,,,,725,MAS,DIS,150,disco,la,l,699.3742,699.3743,0.93616916,-0.493334551,0,0,0,,0,192,192,274,1,,,,
,,,,,,edd8ac93b2254abe5ddbfa3a,66a626ef09d4e21e1a8894ec,67360fd80393f6a0a77a7d41,2024-11-14_08h57.44.951,Tarea de género gramatical,2024.2.2,Win32,59.88023952,,,,,,,,,,,,,,,,,,,,,,,,699.3747,700.7742,a,0,0.7212,,[],[],[],[],[],[],[],0.7212,0,700.7746,701.2741,,,,,,873,FEM,AGR,150,poesía,la,a,701.2741,701.2742,0.93616916,-0.493334551,0,0,0,,0,193,193,422,1,,,,
,,,,,,edd8ac93b2254abe5ddbfa3a,66a626ef09d4e21e1a8894ec,67360fd80393f6a0a77a7d41,2024-11-14_08h57.44.951,Tarea de género gramatical,2024.2.2,Win32,59.88023952,,,,,,,,,,,,,,,,,,,,,,,,701.2746,702.524,l,1,0.5797,,[],[],[],[],[],[],[],0.5797,1,702.5243,703.024,,,,,,513,FEM,AGR,150,fila,la,a,703.024,703.0241,0.93616916,-0.493334551,0,0,0,,0,194,194,62,1,,,,
,,,,,,edd8ac93b2254abe5ddbfa3a,66a626ef09d4e21e1a8894ec,67360fd80393f6a0a77a7d41,2024-11-14_08h57.44.951,Tarea de género gramatical,2024.2.2,Win32,59.88023952,,,,,,,,,,,,,,,,,,,,,,,,703.0245,704.0906,l,1,0.3844,,[],[],[],[],[],[],[],0.3844,1,704.0907,704.5906,,,,,,619,FEM,CON,150,vista,,a,704.591,704.5914,0.93616916,-0.493334551,0,0,0,,0,195,195,168,1,,,,
,,,,,,edd8ac93b2254abe5ddbfa3a,66a626ef09d4e21e1a8894ec,67360fd80393f6a0a77a7d41,2024-11-14_08h57.44.951,Tarea de género gramatical,2024.2.2,Win32,59.88023952,,,,,,,,,,,,,,,,,,,,,,,,704.5916,705.5905,l,1,0.3311,,[],[],[],[],[],[],[],0.3311,1,705.5906,706.0905,,,,,,469,FEM,CON,150,niña,,a,706.0905,706.0905,0.93616916,-0.493334551,0,0,0,,0,196,196,18,1,,,,
,,,,,,edd8ac93b2254abe5ddbfa3a,66a626ef09d4e21e1a8894ec,67360fd80393f6a0a77a7d41,2024-11-14_08h57.44.951,Tarea de género gramatical,2024.2.2,Win32,59.88023952,,,,,,,,,,,,,,,,,,,,,,,,706.0911,707.4238,a,0,0.6622,,[],[],[],[],[],[],[],0.6622,0,707.4242,707.9238,,,,,,866,FEM,DIS,150,colina,el,a,707.9238,707.9239,0.93616916,-0.493334551,0,0,0,,0,197,197,415,1,,,,
,,,,,,edd8ac93b2254abe5ddbfa3a,66a626ef09d4e21e1a8894ec,67360fd80393f6a0a77a7d41,2024-11-14_08h57.44.951,Tarea de género gramatical,2024.2.2,Win32,59.88023952,,,,,,,,,,,,,,,,,,,,,,,,707.9244,709.0903,a,0,0.4914,,[],[],[],[],[],[],[],0.4914,0,709.0903,709.5902,,,,,,705,FEM,AGR,150,tribu,la,a,709.5902,709.5903,0.93616916,-0.493334551,0,0,0,,0,198,198,254,1,,,,
,,,,,,edd8ac93b2254abe5ddbfa3a,66a626ef09d4e21e1a8894ec,67360fd80393f6a0a77a7d41,2024-11-14_08h57.44.951,Tarea de género gramatical,2024.2.2,Win32,59.88023952,,,,,,,,,,,,,,,,,,,,,,,,709.5907,710.6736,a,1,0.4055,,[],[],[],[],[],[],[],0.4055,1,710.6739,711.1736,,,,,,496,MAS,CON,150,odio,,l,711.1736,711.1736,0.93616916,-0.493334551,0,0,0,,0,199,199,45,1,,,,
,,,,,,edd8ac93b2254abe5ddbfa3a,66a626ef09d4e21e1a8894ec,67360fd80393f6a0a77a7d41,2024-11-14_08h57.44.951,Tarea de género gramatical,2024.2.2,Win32,59.88023952,,,,,,,,,,,,,,,,,,,,,,,,711.1741,712.2401,a,1,0.3842,,[],[],[],[],[],[],[],0.3842,1,712.2401,712.7402,,,,,,706,MAS,CON,150,techo,,l,712.7408,712.7411,0.93616916,-0.493334551,0,0,0,,0,200,200,255,1,,,,
,,,,,,edd8ac93b2254abe5ddbfa3a,66a626ef09d4e21e1a8894ec,67360fd80393f6a0a77a7d41,2024-11-14_08h57.44.951,Tarea de género gramatical,2024.2.2,Win32,59.88023952,,,,,,,,,,,,,,,,,,,,,,,,712.7413,713.8233,a,1,0.4054,,[],[],[],[],[],[],[],0.4054,1,713.8234,714.3233,,,,,,696,MAS,AGR,150,humor,el,l,714.3233,714.3234,0.93616916,-0.493334551,0,0,0,,0,201,201,245,1,,,,
,,,,,,edd8ac93b2254abe5ddbfa3a,66a626ef09d4e21e1a8894ec,67360fd80393f6a0a77a7d41,2024-11-14_08h57.44.951,Tarea de género gramatical,2024.2.2,Win32,59.88023952,,,,,,,,,,,,,,,,,,,,,,,,714.3239,715.8899,l,1,0.8833,,[],[],[],[],[],[],[],0.8833,1,715.8899,716.3898,,,,,,626,FEM,DIS,150,línea,el,a,716.3899,716.3899,0.93616916,-0.493334551,0,0,0,,0,202,202,175,1,,,,
,,,,,,edd8ac93b2254abe5ddbfa3a,66a626ef09d4e21e1a8894ec,67360fd80393f6a0a77a7d41,2024-11-14_08h57.44.951,Tarea de género gramatical,2024.2.2,Win32,59.88023952,,,,,,,,,,,,,,,,,,,,,,,,716.3905,717.2233,a,1,0.1573,,[],[],[],[],[],[],[],0.1573,1,717.2234,717.7232,,,,,,492,MAS,AGR,150,show,el,l,717.7232,717.7233,0.93616916,-0.493334551,0,0,0,,0,203,203,41,1,,,,
,,,,,,edd8ac93b2254abe5ddbfa3a,66a626ef09d4e21e1a8894ec,67360fd80393f6a0a77a7d41,2024-11-14_08h57.44.951,Tarea de género gramatical,2024.2.2,Win32,59.88023952,,,,,,,,,,,,,,,,,,,,,,,,717.7237,718.8064,a,0,0.4039,,[],[],[],[],[],[],[],0.4039,0,718.8067,719.3063,,,,,,697,FEM,CON,150,frase,,a,719.3068,719.3072,0.93616916,-0.493334551,0,0,0,,0,204,204,246,1,,,,
,,,,,,edd8ac93b2254abe5ddbfa3a,66a626ef09d4e21e1a8894ec,67360fd80393f6a0a77a7d41,2024-11-14_08h57.44.951,Tarea de género gramatical,2024.2.2,Win32,59.88023952,,,,,,,,,,,,,,,,,,,,,,,,719.3075,720.723,a,1,0.7407,,[],[],[],[],[],[],[],0.7407,1,720.7233,721.2229,,,,,,736,MAS,CON,150,reino,,l,721.223,721.223,0.93616916,-0.493334551,0,0,0,,0,205,205,285,1,,,,
,,,,,,edd8ac93b2254abe5ddbfa3a,66a626ef09d4e21e1a8894ec,67360fd80393f6a0a77a7d41,2024-11-14_08h57.44.951,Tarea de género gramatical,2024.2.2,Win32,59.88023952,,,,,,,,,,,,,,,,,,,,,,,,721.2234,722.3728,a,0,0.4696,,[],[],[],[],[],[],[],0.4696,0,722.3732,722.8727,,,,,,722,FEM,DIS,150,oreja,el,a,722.8727,722.8727,0.93616916,-0.493334551,0,0,0,,0,206,206,271,1,,,,
,,,,,,edd8ac93b2254abe5ddbfa3a,66a626ef09d4e21e1a8894ec,67360fd80393f6a0a77a7d41,2024-11-14_08h57.44.951,Tarea de género gramatical,2024.2.2,Win32,59.88023952,,,,,,,,,,,,,,,,,,,,,,,,722.8733,724.3893,l,1,0.8421,,[],[],[],[],[],[],[],0.8421,1,724.3896,724.8893,,,,,,483,FEM,AGR,150,boda,la,a,724.8893,724.8893,0.93616916,-0.493334551,0,0,0,,0,207,207,32,1,,,,
,,,,,,edd8ac93b2254abe5ddbfa3a,66a626ef09d4e21e1a8894ec,67360fd80393f6a0a77a7d41,2024-11-14_08h57.44.951,Tarea de género gramatical,2024.2.2,Win32,59.88023952,,,,,,,,,,,,,,,,,,,,,,,,724.8898,725.9226,l,1,0.349,,[],[],[],[],[],[],[],0.349,1,725.9226,726.4225,,,,,,650,FEM,DIS,150,silla,el,a,726.4225,726.4226,0.93616916,-0.493334551,0,0,0,,0,208,208,199,1,,,,
,,,,,,edd8ac93b2254abe5ddbfa3a,66a626ef09d4e21e1a8894ec,67360fd80393f6a0a77a7d41,2024-11-14_08h57.44.951,Tarea de género gramatical,2024.2.2,Win32,59.88023952,,,,,,,,,,,,,,,,,,,,,,,,726.423,727.9224,l,1,0.8212,,[],[],[],[],[],[],[],0.8212,1,727.9224,728.4224,,,,,,525,FEM,AGR,150,caza,la,a,728.4228,728.4232,0.93616916,-0.493334551,0,0,0,,0,209,209,74,1,,,,
,,,,,,edd8ac93b2254abe5ddbfa3a,66a626ef09d4e21e1a8894ec,67360fd80393f6a0a77a7d41,2024-11-14_08h57.44.951,Tarea de género gramatical,2024.2.2,Win32,59.88023952,,,,,,,,,,,,,,,,,,,,,,,,728.4235,729.9723,a,1,0.8732,,[],[],[],[],[],[],[],0.8732,1,729.9723,730.4723,,,,,,664,MAS,CON,150,fondo,,l,730.4723,730.4723,0.93616916,-0.493334551,0,0,0,,0,210,210,213,1,,,,
,,,,,,edd8ac93b2254abe5ddbfa3a,66a626ef09d4e21e1a8894ec,67360fd80393f6a0a77a7d41,2024-11-14_08h57.44.951,Tarea de género gramatical,2024.2.2,Win32,59.88023952,,,,,,,,,,,,,,,,,,,,,,,,730.4727,731.6055,a,0,0.4505,,[],[],[],[],[],[],[],0.4505,0,731.6058,732.1055,,,,,,488,FEM,DIS,150,obra,el,a,732.1055,732.1055,0.93616916,-0.493334551,0,0,0,,0,211,211,37,1,,,,
,,,,,,edd8ac93b2254abe5ddbfa3a,66a626ef09d4e21e1a8894ec,67360fd80393f6a0a77a7d41,2024-11-14_08h57.44.951,Tarea de género gramatical,2024.2.2,Win32,59.88023952,,,,,,,,,,,,,,,,,,,,,,,,732.106,733.2555,a,0,0.4755,,[],[],[],[],[],[],[],0.4755,0,733.2555,733.7554,,,,,,824,FEM,DIS,150,herida,el,a,733.7554,733.7555,0.93616916,-0.493334551,0,0,0,,0,212,212,373,1,,,,
,,,,,,edd8ac93b2254abe5ddbfa3a,66a626ef09d4e21e1a8894ec,67360fd80393f6a0a77a7d41,2024-11-14_08h57.44.951,Tarea de género gramatical,2024.2.2,Win32,59.88023952,,,,,,,,,,,,,,,,,,,,,,,,733.756,734.8386,a,1,0.3994,,[],[],[],[],[],[],[],0.3994,1,734.839,735.3386,,,,,,797,MAS,DIS,150,cuello,la,l,735.3391,735.3394,0.93616916,-0.493334551,0,0,0,,0,213,213,346,1,,,,
,,,,,,edd8ac93b2254abe5ddbfa3a,66a626ef09d4e21e1a8894ec,67360fd80393f6a0a77a7d41,2024-11-14_08h57.44.951,Tarea de género gramatical,2024.2.2,Win32,59.88023952,,,,,,,,,,,,,,,,,,,,,,,,735.3397,736.4219,a,1,0.4101,,[],[],[],[],[],[],[],0.4101,1,736.4219,736.9218,,,,,,779,MAS,DIS,150,futuro,la,l,736.9218,736.9219,0.93616916,-0.493334551,0,0,0,,0,214,214,328,1,,,,
,,,,,,edd8ac93b2254abe5ddbfa3a,66a626ef09d4e21e1a8894ec,67360fd80393f6a0a77a7d41,2024-11-14_08h57.44.951,Tarea de género gramatical,2024.2.2,Win32,59.88023952,,,,,,,,,,,,,,,,,,,,,,,,736.9223,738.2551,a,1,0.6629,,[],[],[],[],[],[],[],0.6629,1,738.2551,738.7551,,,,,,815,MAS,DIS,150,código,la,l,738.7551,738.7551,0.93616916,-0.493334551,0,0,0,,0,215,215,364,1,,,,
,,,,,,edd8ac93b2254abe5ddbfa3a,66a626ef09d4e21e1a8894ec,67360fd80393f6a0a77a7d41,2024-11-14_08h57.44.951,Tarea de género gramatical,2024.2.2,Win32,59.88023952,,,,,,,,,,,,,,,,,,,,,,,,738.7556,740.2884,a,0,0.8607,,[],[],[],[],[],[],[],0.8607,0,740.2887,740.7883,,,,,,547,FEM,CON,150,capa,,a,740.7883,740.7884,0.93616916,-0.493334551,0,0,0,,0,216,216,96,1,,,,
,,,,,,edd8ac93b2254abe5ddbfa3a,66a626ef09d4e21e1a8894ec,67360fd80393f6a0a77a7d41,2024-11-14_08h57.44.951,Tarea de género gramatical,2024.2.2,Win32,59.88023952,,,,,,,,,,,,,,,,,,,,,,,,740.7889,741.8049,a,1,0.3351,,[],[],[],[],[],[],[],0.3351,1,741.8053,742.3048,,,,,,893,MAS,DIS,150,templo,la,l,742.3048,742.305,0.93616916,-0.493334551,0,0,0,,0,217,217,442,1,,,,
,,,,,,edd8ac93b2254abe5ddbfa3a,66a626ef09d4e21e1a8894ec,67360fd80393f6a0a77a7d41,2024-11-14_08h57.44.951,Tarea de género gramatical,2024.2.2,Win32,59.88023952,,,,,,,,,,,,,,,,,,,,,,,,742.3054,743.3715,a,1,0.3901,,[],[],[],[],[],[],[],0.3901,1,743.3715,743.8713,,,,,,821,MAS,DIS,150,sonido,la,l,743.8718,743.8722,0.93616916,-0.493334551,0,0,0,,0,218,218,370,1,,,,
,,,,,,edd8ac93b2254abe5ddbfa3a,66a626ef09d4e21e1a8894ec,67360fd80393f6a0a77a7d41,2024-11-14_08h57.44.951,Tarea de género gramatical,2024.2.2,Win32,59.88023952,,,,,,,,,,,,,,,,,,,,,,,,743.8724,744.9213,l,1,0.3774,,[],[],[],[],[],[],[],0.3774,1,744.9213,745.4213,,,,,,745,FEM,CON,150,grasa,,a,745.4213,745.4214,0.93616916,-0.493334551,0,0,0,,0,219,219,294,1,,,,
,,,,,,edd8ac93b2254abe5ddbfa3a,66a626ef09d4e21e1a8894ec,67360fd80393f6a0a77a7d41,2024-11-14_08h57.44.951,Tarea de género gramatical,2024.2.2,Win32,59.88023952,,,,,,,,,,,,,,,,,,,,,,,,745.4219,746.4879,l,1,0.3933,,[],[],[],[],[],[],[],0.3933,1,746.488,746.9879,,,,,,561,FEM,AGR,150,goma,la,a,746.9879,746.988,0.93616916,-0.493334551,0,0,0,,0,220,220,110,1,,,,
,,,,,,edd8ac93b2254abe5ddbfa3a,66a626ef09d4e21e1a8894ec,67360fd80393f6a0a77a7d41,2024-11-14_08h57.44.951,Tarea de género gramatical,2024.2.2,Win32,59.88023952,,,,,,,,,,,,,,,,,,,,,,,,746.9884,748.2044,l,1,0.5329,,[],[],[],[],[],[],[],0.5329,1,748.2045,748.7044,,,,,,585,FEM,AGR,150,raíz,la,a,748.7044,748.7045,0.93616916,-0.493334551,0,0,0,,0,221,221,134,1,,,,
,,,,,,edd8ac93b2254abe5ddbfa3a,66a626ef09d4e21e1a8894ec,67360fd80393f6a0a77a7d41,2024-11-14_08h57.44.951,Tarea de género gramatical,2024.2.2,Win32,59.88023952,,,,,,,,,,,,,,,,,,,,,,,,748.7049,749.7377,a,1,0.3631,,[],[],[],[],[],[],[],0.3631,1,749.7378,750.2377,,,,,,544,MAS,CON,150,cabo,,l,750.2381,750.2384,0.93616916,-0.493334551,0,0,0,,0,222,222,93,1,,,,
,,,,,,edd8ac93b2254abe5ddbfa3a,66a626ef09d4e21e1a8894ec,67360fd80393f6a0a77a7d41,2024-11-14_08h57.44.951,Tarea de género gramatical,2024.2.2,Win32,59.88023952,,,,,,,,,,,,,,,,,,,,,,,,750.2387,751.4709,l,1,0.5511,,[],[],[],[],[],[],[],0.5511,1,751.4709,751.9708,,,,,,793,FEM,CON,150,trampa,,a,751.9709,751.9709,0.93616916,-0.493334551,0,0,0,,0,223,223,342,1,,,,
,,,,,,edd8ac93b2254abe5ddbfa3a,66a626ef09d4e21e1a8894ec,67360fd80393f6a0a77a7d41,2024-11-14_08h57.44.951,Tarea de género gramatical,2024.2.2,Win32,59.88023952,,,,,,,,,,,,,,,,,,,,,,,,751.9714,753.1042,l,1,0.4511,,[],[],[],[],[],[],[],0.4511,1,753.1042,753.6041,,,,,,819,FEM,AGR,150,camisa,la,a,753.6041,753.6042,0.93616916,-0.493334551,0,0,0,,0,224,224,368,1,,,,
,,,,,,edd8ac93b2254abe5ddbfa3a,66a626ef09d4e21e1a8894ec,67360fd80393f6a0a77a7d41,2024-11-14_08h57.44.951,Tarea de género gramatical,2024.2.2,Win32,59.88023952,,,,,,,,,,,,,,,,,,,,,,,,753.6047,754.7873,l,1,0.5021,,[],[],[],[],[],[],[],0.5021,1,754.7874,755.2873,,,,,,589,FEM,CON,150,pipa,,a,755.2874,755.2874,0.93616916,-0.493334551,0,0,0,,0,225,225,138,1,,,,
,,,,,,edd8ac93b2254abe5ddbfa3a,66a626ef09d4e21e1a8894ec,67360fd80393f6a0a77a7d41,2024-11-14_08h57.44.951,Tarea de género gramatical,2024.2.2,Win32,59.88023952,,,,,,,,,,,,,,,,,,,,,,,,755.2878,756.3874,a,1,0.4182,,[],[],[],[],[],[],[],0.4182,1,756.3875,756.8872,,,,,,666,MAS,AGR,150,éxito,el,l,756.8872,756.8872,0.93616916,-0.493334551,0,0,0,,0,226,226,215,1,,,,
,,,,,,edd8ac93b2254abe5ddbfa3a,66a626ef09d4e21e1a8894ec,67360fd80393f6a0a77a7d41,2024-11-14_08h57.44.951,Tarea de género gramatical,2024.2.2,Win32,59.88023952,,,,,,,,,,,,,,,,,,,,,,,,756.8877,758.0873,a,1,0.5159,,[],[],[],[],[],[],[],0.5159,1,758.0874,758.5872,,,,,,882,MAS,AGR,150,océano,el,l,758.5876,758.588,0.93616916,-0.493334551,0,0,0,,0,227,227,431,1,,,,
,,,,,,edd8ac93b2254abe5ddbfa3a,66a626ef09d4e21e1a8894ec,67360fd80393f6a0a77a7d41,2024-11-14_08h57.44.951,Tarea de género gramatical,2024.2.2,Win32,59.88023952,,,,,,,,,,,,,,,,,,,,,,,,758.5882,759.7204,l,1,0.4565,,[],[],[],[],[],[],[],0.4565,1,759.7205,760.2203,,,,,,871,FEM,CON,150,novela,,a,760.2203,760.2204,0.93616916,-0.493334551,0,0,0,,0,228,228,420,1,,,,
,,,,,,edd8ac93b2254abe5ddbfa3a,66a626ef09d4e21e1a8894ec,67360fd80393f6a0a77a7d41,2024-11-14_08h57.44.951,Tarea de género gramatical,2024.2.2,Win32,59.88023952,,,,,,,,,,,,,,,,,,,,,,,,760.2209,761.3869,l,1,0.4874,,[],[],[],[],[],[],[],0.4874,1,761.3871,761.887,,,,,,823,FEM,CON,150,lluvia,,a,761.887,761.887,0.93616916,-0.493334551,0,0,0,,0,229,229,372,1,,,,
,,,,,,edd8ac93b2254abe5ddbfa3a,66a626ef09d4e21e1a8894ec,67360fd80393f6a0a77a7d41,2024-11-14_08h57.44.951,Tarea de género gramatical,2024.2.2,Win32,59.88023952,,,,,,,,,,,,,,,,,,,,,,,,761.8875,763.0036,a,1,0.4407,,[],[],[],[],[],[],[],0.4407,1,763.0036,763.5035,,,,,,594,MAS,AGR,150,amor,el,l,763.5035,763.5035,0.93616916,-0.493334551,0,0,0,,0,230,230,143,1,,,,
,,,,,,edd8ac93b2254abe5ddbfa3a,66a626ef09d4e21e1a8894ec,67360fd80393f6a0a77a7d41,2024-11-14_08h57.44.951,Tarea de género gramatical,2024.2.2,Win32,59.88023952,,,,,,,,,,,,,,,,,,,,,,,,763.504,764.5868,a,1,0.4104,,[],[],[],[],[],[],[],0.4104,1,764.5868,765.0867,,,,,,773,MAS,DIS,150,marido,la,l,765.0872,765.0875,0.93616916,-0.493334551,0,0,0,,0,231,231,322,1,,,,
,,,,,,edd8ac93b2254abe5ddbfa3a,66a626ef09d4e21e1a8894ec,67360fd80393f6a0a77a7d41,2024-11-14_08h57.44.951,Tarea de género gramatical,2024.2.2,Win32,59.88023952,,,,,,,,,,,,,,,,,,,,,,,,765.0877,766.0699,a,1,0.3017,,[],[],[],[],[],[],[],0.3017,1,766.07,766.5699,,,,,,486,MAS,AGR,150,dedo,el,l,766.5699,766.57,0.93616916,-0.493334551,0,0,0,,0,232,232,35,1,,,,
,,,,,,edd8ac93b2254abe5ddbfa3a,66a626ef09d4e21e1a8894ec,67360fd80393f6a0a77a7d41,2024-11-14_08h57.44.951,Tarea de género gramatical,2024.2.2,Win32,59.88023952,,,,,,,,,,,,,,,,,,,,,,,,766.5705,767.8532,l,1,0.6068,,[],[],[],[],[],[],[],0.6068,1,767.8532,768.3532,,,,,,543,FEM,AGR,150,lata,la,a,768.3532,768.3533,0.93616916,-0.493334551,0,0,0,,0,233,233,92,1,,,,
,,,,,,edd8ac93b2254abe5ddbfa3a,66a626ef09d4e21e1a8894ec,67360fd80393f6a0a77a7d41,2024-11-14_08h57.44.951,Tarea de género gramatical,2024.2.2,Win32,59.88023952,,,,,,,,,,,,,,,,,,,,,,,,768.3537,769.8531,a,0,0.8276,,[],[],[],[],[],[],[],0.8276,0,769.8534,770.3531,,,,,,531,FEM,AGR,150,cima,la,a,770.3531,770.3531,0.93616916,-0.493334551,0,0,0,,0,234,234,80,1,,,,
,,,,,,edd8ac93b2254abe5ddbfa3a,66a626ef09d4e21e1a8894ec,67360fd80393f6a0a77a7d41,2024-11-14_08h57.44.951,Tarea de género gramatical,2024.2.2,Win32,59.88023952,,,,,,,,,,,,,,,,,,,,,,,,770.3535,771.2363,l,1,0.2095,,[],[],[],[],[],[],[],0.2095,1,771.2366,771.7363,,,,,,548,FEM,DIS,150,fuga,el,a,771.7363,771.7363,0.93616916,-0.493334551,0,0,0,,0,235,235,97,1,,,,
,,,,,,edd8ac93b2254abe5ddbfa3a,66a626ef09d4e21e1a8894ec,67360fd80393f6a0a77a7d41,2024-11-14_08h57.44.951,Tarea de género gramatical,2024.2.2,Win32,59.88023952,,,,,,,,,,,,,,,,,,,,,,,,771.7368,772.503,l,0,0.0835,,[],[],[],[],[],[],[],0.0835,0,772.5033,773.0028,,,,,,610,MAS,CON,150,señor,,l,773.0033,773.0037,0.93616916,-0.493334551,0,0,0,,0,236,236,159,1,,,,
,,,,,,edd8ac93b2254abe5ddbfa3a,66a626ef09d4e21e1a8894ec,67360fd80393f6a0a77a7d41,2024-11-14_08h57.44.951,Tarea de género gramatical,2024.2.2,Win32,59.88023952,,,,,,,,,,,,,,,,,,,,,,,,773.004,774.2361,l,1,0.5558,,[],[],[],[],[],[],[],0.5558,1,774.2365,774.7361,,,,,,757,FEM,CON,150,suerte,,a,774.7361,774.7362,0.93616916,-0.493334551,0,0,0,,0,237,237,306,1,,,,
,,,,,,edd8ac93b2254abe5ddbfa3a,66a626ef09d4e21e1a8894ec,67360fd80393f6a0a77a7d41,2024-11-14_08h57.44.951,Tarea de género gramatical,2024.2.2,Win32,59.88023952,,,,,,,,,,,,,,,,,,,,,,,,774.7366,776.336,a,0,0.9264,,[],[],[],[],[],[],[],0.9264,0,776.3363,776.8359,,,,,,692,FEM,DIS,150,pizza,el,a,776.836,776.8361,0.93616916,-0.493334551,0,0,0,,0,238,238,241,1,,,,
,,,,,,edd8ac93b2254abe5ddbfa3a,66a626ef09d4e21e1a8894ec,67360fd80393f6a0a77a7d41,2024-11-14_08h57.44.951,Tarea de género gramatical,2024.2.2,Win32,59.88023952,,,,,,,,,,,,,,,,,,,,,,,,776.8364,777.6026,l,0,0.0895,,[],[],[],[],[],[],[],0.0895,0,777.6027,778.1025,,,,,,808,MAS,CON,150,motivo,,l,778.1025,778.1026,0.93616916,-0.493334551,0,0,0,,0,239,239,357,1,,,,
,,,,,,edd8ac93b2254abe5ddbfa3a,66a626ef09d4e21e1a8894ec,67360fd80393f6a0a77a7d41,2024-11-14_08h57.44.951,Tarea de género gramatical,2024.2.2,Win32,59.88023952,,,,,,,,,,,,,,,,,,,,,,,,778.103,779.0525,a,1,0.2781,,[],[],[],[],[],[],[],0.2781,1,779.0528,779.5525,,,,,,730,MAS,CON,150,salón,,l,779.5529,779.5533,0.93616916,-0.493334551,0,0,0,,0,240,240,279,1,,,,
,,,,,,edd8ac93b2254abe5ddbfa3a,66a626ef09d4e21e1a8894ec,67360fd80393f6a0a77a7d41,2024-11-14_08h57.44.951,Tarea de género gramatical,2024.2.2,Win32,59.88023952,,,,,,,,,,,,,,,,,,,,,,,,779.5536,782.1356,l,1,1.9083,,[],[],[],[],[],[],[],1.9083,1,782.1357,782.6355,,,,,,788,FEM,DIS,150,abuela,el,a,782.6356,782.6356,0.93616916,-0.493334551,0,0,0,,0,241,241,337,1,,,,
,,,,,,edd8ac93b2254abe5ddbfa3a,66a626ef09d4e21e1a8894ec,67360fd80393f6a0a77a7d41,2024-11-14_08h57.44.951,Tarea de género gramatical,2024.2.2,Win32,59.88023952,,,,,,,,,,,,,,,,,,,,,,,,782.6363,783.819,a,1,0.5123,,[],[],[],[],[],[],[],0.5123,1,783.8191,784.3187,,,,,,749,MAS,DIS,150,rumbo,la,l,784.3188,784.3189,0.93616916,-0.493334551,0,0,0,,0,242,242,298,1,,,,
,,,,,,edd8ac93b2254abe5ddbfa3a,66a626ef09d4e21e1a8894ec,67360fd80393f6a0a77a7d41,2024-11-14_08h57.44.951,Tarea de género gramatical,2024.2.2,Win32,59.88023952,,,,,,,,,,,,,,,,,,,,,,,,784.3194,786.9686,,0,,,[],[],[],[],[],[],[],0.5123,-1,786.9693,787.4686,,,,,,899,MAS,DIS,150,payaso,la,l,787.4687,787.4687,0.93616916,-0.493334551,0,0,0,,0,243,243,448,1,,,,
,,,,,,edd8ac93b2254abe5ddbfa3a,66a626ef09d4e21e1a8894ec,67360fd80393f6a0a77a7d41,2024-11-14_08h57.44.951,Tarea de género gramatical,2024.2.2,Win32,59.88023952,,,,,,,,,,,,,,,,,,,,,,,,787.4692,788.1519,a,0,1E-04,,[],[],[],[],[],[],[],1E-04,0,788.1523,788.6518,,,,,,465,FEM,AGR,150,cama,la,a,788.6518,788.652,0.93616916,-0.493334551,0,0,0,,0,244,244,14,1,,,,
,,,,,,edd8ac93b2254abe5ddbfa3a,66a626ef09d4e21e1a8894ec,67360fd80393f6a0a77a7d41,2024-11-14_08h57.44.951,Tarea de género gramatical,2024.2.2,Win32,59.88023952,,,,,,,,,,,,,,,,,,,,,,,,788.6524,790.2518,l,1,0.9185,,[],[],[],[],[],[],[],0.9185,1,790.2522,790.7518,,,,,,799,FEM,CON,150,prensa,,a,790.7523,790.7526,0.93616916,-0.493334551,0,0,0,,0,245,245,348,1,,,,
,,,,,,edd8ac93b2254abe5ddbfa3a,66a626ef09d4e21e1a8894ec,67360fd80393f6a0a77a7d41,2024-11-14_08h57.44.951,Tarea de género gramatical,2024.2.2,Win32,59.88023952,,,,,,,,,,,,,,,,,,,,,,,,790.7529,792.2849,a,1,0.85,,[],[],[],[],[],[],[],0.85,1,792.285,792.7849,,,,,,772,MAS,CON,150,minuto,,l,792.7849,792.785,0.93616916,-0.493334551,0,0,0,,0,246,246,321,1,,,,
,,,,,,edd8ac93b2254abe5ddbfa3a,66a626ef09d4e21e1a8894ec,67360fd80393f6a0a77a7d41,2024-11-14_08h57.44.951,Tarea de género gramatical,2024.2.2,Win32,59.88023952,,,,,,,,,,,,,,,,,,,,,,,,792.7855,794.0016,a,0,0.54,,[],[],[],[],[],[],[],0.54,0,794.0019,794.5015,,,,,,800,FEM,DIS,150,imagen,el,a,794.5016,794.5017,0.93616916,-0.493334551,0,0,0,,0,247,247,349,1,,,,
,,,,,,edd8ac93b2254abe5ddbfa3a,66a626ef09d4e21e1a8894ec,67360fd80393f6a0a77a7d41,2024-11-14_08h57.44.951,Tarea de género gramatical,2024.2.2,Win32,59.88023952,,,,,,,,,,,,,,,,,,,,,,,,794.5022,795.8348,l,1,0.6498,,[],[],[],[],[],[],[],0.6498,1,795.8351,796.3349,,,,,,849,FEM,AGR,150,charla,la,a,796.335,796.335,0.93616916,-0.493334551,0,0,0,,0,248,248,398,1,,,,
,,,,,,edd8ac93b2254abe5ddbfa3a,66a626ef09d4e21e1a8894ec,67360fd80393f6a0a77a7d41,2024-11-14_08h57.44.951,Tarea de género gramatical,2024.2.2,Win32,59.88023952,,,,,,,,,,,,,,,,,,,,,,,,796.3355,797.3013,a,0,0.288,,[],[],[],[],[],[],[],0.288,0,797.3016,797.8013,,,,,,524,FEM,DIS,150,flor,el,a,797.8018,797.802,0.93616916,-0.493334551,0,0,0,,0,249,249,73,1,,,,
,,,,,,edd8ac93b2254abe5ddbfa3a,66a626ef09d4e21e1a8894ec,67360fd80393f6a0a77a7d41,2024-11-14_08h57.44.951,Tarea de género gramatical,2024.2.2,Win32,59.88023952,,,,,,,,,,,,,,,,,,,,,,,,797.8024,798.9179,a,1,0.4385,,[],[],[],[],[],[],[],0.4385,1,798.9182,799.4178,,,,,,774,MAS,AGR,150,cuarto,el,l,799.4178,799.4179,0.93616916,-0.493334551,0,0,0,,0,250,250,323,1,,,,
,,,,,,edd8ac93b2254abe5ddbfa3a,66a626ef09d4e21e1a8894ec,67360fd80393f6a0a77a7d41,2024-11-14_08h57.44.951,Tarea de género gramatical,2024.2.2,Win32,59.88023952,,,,,,,,,,,,,,,,,,,,,,,,799.4184,800.6844,a,1,0.59,,[],[],[],[],[],[],[],0.59,1,800.6845,801.1844,,,,,,737,MAS,DIS,150,plato,la,l,801.1844,801.1845,0.93616916,-0.493334551,0,0,0,,0,251,251,286,1,,,,
