counterbalancing_condition,consent_prescreening.block_1/declare_consent,consent_prescreening.block_1/age_years,consent_prescreening.block_1/gender,consent_prescreening.block_1/language_disorder,consent_prescreening.block_1/first_language,PROLIFIC_PID,STUDY_ID,SESSION_ID,date,expName,psychopyVersion,OS,frameRate,check_prescreening_answers.started,check_prescreening_answers.stopped,Instructions.started,Instructions.stopped,instr_done_keyboard.keys,instr_done_touch.x,instr_done_touch.y,instr_done_touch.leftButton,instr_done_touch.midButton,instr_done_touch.rightButton,instr_done_touch.clicked_name,instruction_pages.thisRepN,instruction_pages.thisTrialN,instruction_pages.thisN,instruction_pages.thisIndex,instruction_pages.ran,pageN,phase,instruct_text,has_image,instruct_image,instr_done_keyboard.rt,instr_done_keyboard.duration,presentTrial.started,presentTrial.stopped,response.keys,response.corr,response.rt,response.duration,touch_resp.x,touch_resp.y,touch_resp.leftButton,touch_resp.midButton,touch_resp.rightButton,touch_resp.time,touch_resp.clicked_name,rt,corr,feedback.started,feedback.stopped,practice_trials.thisRepN,practice_trials.thisTrialN,practice_trials.thisN,practice_trials.thisIndex,practice_trials.ran,TrialID,StimulusType,Condition,PrimeDuration,Prime,Flanker,corrAns,Break.started,Break.stopped,break_done_touch.x,break_done_touch.y,break_done_touch.leftButton,break_done_touch.midButton,break_done_touch.rightButton,break_done_keyboard.keys,experiment_trials.thisRepN,experiment_trials.thisTrialN,experiment_trials.thisN,experiment_trials.thisIndex,experiment_trials.ran,break_done_keyboard.rt,break_done_keyboard.duration,End.started,End.stopped
2,"[""over_18"",""comfortable"",""read_info"",""consent_given""]",33,M,"[""none""]","[""spanish""]",eeac1da0343c561b2d10b8fa,66a626ef09d4e21e1a8894ec,673768162bd316f69f3696a6,2024-11-15_12h27.06.171,Tarea de género gramatical,2024.2.2,Win32,60.0240096,,,,,,,,,,,,,,,,,,,,,,,,,,,,,,,,,,,,,,,,,,,,,,,,,,,,,,,,,,,,,,,,,,,,,
,,,,,,eeac1da0343c561b2d10b8fa,66a626ef09d4e21e1a8894ec,673768162bd316f69f3696a6,2024-11-15_12h27.06.171,Tarea de género gramatical,2024.2.2,Win32,60.0240096,26.561,26.561,,,,,,,,,,,,,,,,,,,,,,,,,,,,,,,,,,,,,,,,,,,,,,,,,,,,,,,,,,,,,,,,,,,
,,,,,,eeac1da0343c561b2d10b8fa,66a626ef09d4e21e1a8894ec,673768162bd316f69f3696a6,2024-11-15_12h27.06.171,Tarea de género gramatical,2024.2.2,Win32,60.0240096,,,26.578,36.987,,0.016927083,-0.4375,1,0,0,instr_done_button,0,0,0,0,1,1,instructions,"INSTRUCCIONES
Va a realizar una prueba de selección gramatical. Desde el comienzo de la prueba mire siempre al centro de la pantalla. Al cabo de un momento, aparecerán palabras. La tarea consiste en determinar si la palabra del centro (siempre será un sustantivo), pertenece al género masculino o femenino.

Pulse la tecla ESPACIO o toque el botón de abajo para continuar.",0,keyboardresponseMF.png,,,,,,,,,,,,,,,,,,,,,,,,,,,,,,,,,,,,,,,,,,,,,,,,
,,,,,,eeac1da0343c561b2d10b8fa,66a626ef09d4e21e1a8894ec,673768162bd316f69f3696a6,2024-11-15_12h27.06.171,Tarea de género gramatical,2024.2.2,Win32,60.0240096,,,36.992,51.505,space,0.016927083,-0.4375,0,0,0,,0,1,1,1,1,2,instructions,"Si su dispositivo tiene teclado, pulse la tecla ""A"" para las palabras en masculino (por ejemplo: ""arroz"") y la tecla ""L"" para las palabras en femenino (por ejemplo: ""mano"").
Pulse la tecla ESPACIO o toque el botón de abajo para continuar.",1,keyboardresponseMF.png,14.445,,,,,,,,,,,,,,,,,,,,,,,,,,,,,,,,,,,,,,,,,,,,,,,
,,,,,,eeac1da0343c561b2d10b8fa,66a626ef09d4e21e1a8894ec,673768162bd316f69f3696a6,2024-11-15_12h27.06.171,Tarea de género gramatical,2024.2.2,Win32,60.0240096,,,51.508,56.672,space,0.016927083,-0.4375,0,0,0,,0,2,2,2,1,3,instructions,"Si utiliza un dispositivo sólo táctil, colóquelo en horizontal y utilice los botones de la pantalla. No utilice el ratón.
Pulse la tecla ESPACIO o toque el botón de abajo para continuar.",2,touchresponseMF.png,5.101,,,,,,,,,,,,,,,,,,,,,,,,,,,,,,,,,,,,,,,,,,,,,,,
,,,,,,eeac1da0343c561b2d10b8fa,66a626ef09d4e21e1a8894ec,673768162bd316f69f3696a6,2024-11-15_12h27.06.171,Tarea de género gramatical,2024.2.2,Win32,60.0240096,,,56.677,65.687,space,0.016927083,-0.4375,0,0,0,,0,3,3,3,1,4,instructions,"Es muy importante que responda con la mayor rapidez y precisión posibles, ya que cada cadena de letras sólo estará en pantalla durante un instante. Si no responde en ese tiempo, aparecerá el mensaje ""Muy lento"" y el experimento pasará a la siguiente palabra. Los primeros 15 intentos serán de práctica y habrá dos descansos durante la prueba.
Pulse la tecla ESPACIO o toque el botón de abajo para iniciar la parte de práctica.",0,keyboardresponseMF.png,8.987,,,,,,,,,,,,,,,,,,,,,,,,,,,,,,,,,,,,,,,,,,,,,,,
,,,,,,eeac1da0343c561b2d10b8fa,66a626ef09d4e21e1a8894ec,673768162bd316f69f3696a6,2024-11-15_12h27.06.171,Tarea de género gramatical,2024.2.2,Win32,60.0240096,,,,,,,,,,,,,,,,,,,,,,,,65.716,67.205,l,1,0.818,,[],[],[],[],[],[],[],0.818,1,67.206,67.706,0,0,0,7,1,2008,FEM,CON,150,siesta,,a,,,,,,,,,,,,,,,,,
,,,,,,eeac1da0343c561b2d10b8fa,66a626ef09d4e21e1a8894ec,673768162bd316f69f3696a6,2024-11-15_12h27.06.171,Tarea de género gramatical,2024.2.2,Win32,60.0240096,,,,,,,,,,,,,,,,,,,,,,,,67.708,69.237,l,0,0.85,,[],[],[],[],[],[],[],0.85,0,69.24,69.737,0,1,1,11,1,2012,MAS,DIS,150,clima,la,l,,,,,,,,,,,,,,,,,
,,,,,,eeac1da0343c561b2d10b8fa,66a626ef09d4e21e1a8894ec,673768162bd316f69f3696a6,2024-11-15_12h27.06.171,Tarea de género gramatical,2024.2.2,Win32,60.0240096,,,,,,,,,,,,,,,,,,,,,,,,69.739,71.505,a,1,1.092,,[],[],[],[],[],[],[],1.092,1,71.507,72.005,0,2,2,14,1,2015,MAS,DIS,150,robot,la,l,,,,,,,,,,,,,,,,,
,,,,,,eeac1da0343c561b2d10b8fa,66a626ef09d4e21e1a8894ec,673768162bd316f69f3696a6,2024-11-15_12h27.06.171,Tarea de género gramatical,2024.2.2,Win32,60.0240096,,,,,,,,,,,,,,,,,,,,,,,,72.007,74.571,l,1,1.89,,[],[],[],[],[],[],[],1.89,1,74.572,75.07,0,3,3,6,1,2007,FEM,AGR,150,navaja,la,a,,,,,,,,,,,,,,,,,
,,,,,,eeac1da0343c561b2d10b8fa,66a626ef09d4e21e1a8894ec,673768162bd316f69f3696a6,2024-11-15_12h27.06.171,Tarea de género gramatical,2024.2.2,Win32,60.0240096,,,,,,,,,,,,,,,,,,,,,,,,75.073,76.205,l,0,0.455,,[],[],[],[],[],[],[],0.455,0,76.206,76.705,0,4,4,10,1,2011,MAS,CON,150,canal,,l,,,,,,,,,,,,,,,,,
,,,,,,eeac1da0343c561b2d10b8fa,66a626ef09d4e21e1a8894ec,673768162bd316f69f3696a6,2024-11-15_12h27.06.171,Tarea de género gramatical,2024.2.2,Win32,60.0240096,,,,,,,,,,,,,,,,,,,,,,,,76.706,77.988,l,1,0.607,,[],[],[],[],[],[],[],0.607,1,77.988,78.488,0,5,5,0,1,2001,FEM,AGR,150,nuca,la,a,,,,,,,,,,,,,,,,,
,,,,,,eeac1da0343c561b2d10b8fa,66a626ef09d4e21e1a8894ec,673768162bd316f69f3696a6,2024-11-15_12h27.06.171,Tarea de género gramatical,2024.2.2,Win32,60.0240096,,,,,,,,,,,,,,,,,,,,,,,,78.49,79.871,l,1,0.701,,[],[],[],[],[],[],[],0.701,1,79.872,80.371,0,6,6,4,1,2005,FEM,CON,150,placa,,a,,,,,,,,,,,,,,,,,
,,,,,,eeac1da0343c561b2d10b8fa,66a626ef09d4e21e1a8894ec,673768162bd316f69f3696a6,2024-11-15_12h27.06.171,Tarea de género gramatical,2024.2.2,Win32,60.0240096,,,,,,,,,,,,,,,,,,,,,,,,80.373,83.021,,0,,,[],[],[],[],[],[],[],0.701,-1,83.025,83.521,0,7,7,3,1,2004,FEM,AGR,150,venta,la,a,,,,,,,,,,,,,,,,,
,,,,,,eeac1da0343c561b2d10b8fa,66a626ef09d4e21e1a8894ec,673768162bd316f69f3696a6,2024-11-15_12h27.06.171,Tarea de género gramatical,2024.2.2,Win32,60.0240096,,,,,,,,,,,,,,,,,,,,,,,,83.522,84.688,l,1,0.502,,[],[],[],[],[],[],[],0.502,1,84.689,85.188,0,8,8,1,1,2002,FEM,CON,150,pala,,a,,,,,,,,,,,,,,,,,
,,,,,,eeac1da0343c561b2d10b8fa,66a626ef09d4e21e1a8894ec,673768162bd316f69f3696a6,2024-11-15_12h27.06.171,Tarea de género gramatical,2024.2.2,Win32,60.0240096,,,,,,,,,,,,,,,,,,,,,,,,85.19,86.338,l,0,0.473,,[],[],[],[],[],[],[],0.473,0,86.339,86.837,0,9,9,8,1,2009,MAS,DIS,150,puerto,la,l,,,,,,,,,,,,,,,,,
,,,,,,eeac1da0343c561b2d10b8fa,66a626ef09d4e21e1a8894ec,673768162bd316f69f3696a6,2024-11-15_12h27.06.171,Tarea de género gramatical,2024.2.2,Win32,60.0240096,,,,,,,,,,,,,,,,,,,,,,,,86.84,88.154,a,1,0.653,,[],[],[],[],[],[],[],0.653,1,88.155,88.656,0,10,10,9,1,2010,MAS,AGR,150,vecino,el,l,,,,,,,,,,,,,,,,,
,,,,,,eeac1da0343c561b2d10b8fa,66a626ef09d4e21e1a8894ec,673768162bd316f69f3696a6,2024-11-15_12h27.06.171,Tarea de género gramatical,2024.2.2,Win32,60.0240096,,,,,,,,,,,,,,,,,,,,,,,,88.66,90.274,l,1,0.946,,[],[],[],[],[],[],[],0.946,1,90.275,90.772,0,11,11,5,1,2006,FEM,DIS,150,serie,el,a,,,,,,,,,,,,,,,,,
,,,,,,eeac1da0343c561b2d10b8fa,66a626ef09d4e21e1a8894ec,673768162bd316f69f3696a6,2024-11-15_12h27.06.171,Tarea de género gramatical,2024.2.2,Win32,60.0240096,,,,,,,,,,,,,,,,,,,,,,,,90.774,92.105,a,1,0.65,,[],[],[],[],[],[],[],0.65,1,92.105,92.605,0,12,12,13,1,2014,MAS,CON,150,siglo,,l,,,,,,,,,,,,,,,,,
,,,,,,eeac1da0343c561b2d10b8fa,66a626ef09d4e21e1a8894ec,673768162bd316f69f3696a6,2024-11-15_12h27.06.171,Tarea de género gramatical,2024.2.2,Win32,60.0240096,,,,,,,,,,,,,,,,,,,,,,,,92.606,93.805,a,1,0.539,,[],[],[],[],[],[],[],0.539,1,93.805,94.305,0,13,13,12,1,2013,MAS,AGR,150,acero,el,l,,,,,,,,,,,,,,,,,
,,,,,,eeac1da0343c561b2d10b8fa,66a626ef09d4e21e1a8894ec,673768162bd316f69f3696a6,2024-11-15_12h27.06.171,Tarea de género gramatical,2024.2.2,Win32,60.0240096,,,,,,,,,,,,,,,,,,,,,,,,94.307,95.555,l,1,0.567,,[],[],[],[],[],[],[],0.567,1,95.555,96.055,0,14,14,2,1,2003,FEM,DIS,150,daga,el,a,,,,,,,,,,,,,,,,,
,,,,,,eeac1da0343c561b2d10b8fa,66a626ef09d4e21e1a8894ec,673768162bd316f69f3696a6,2024-11-15_12h27.06.171,Tarea de género gramatical,2024.2.2,Win32,60.0240096,,,99.492,101.538,space,0.016927083,-0.4375,0,0,0,,,,,,,,,,,,2.033,,101.593,103.138,l,1,0.867,,[],[],[],[],[],[],[],0.867,1,103.139,103.639,,,,,,1321,FEM,DIS,150,novela,el,a,103.639,103.643,0.016927083,-0.4375,0,0,0,,0,0,0,420,1,,,,
,,,,,,eeac1da0343c561b2d10b8fa,66a626ef09d4e21e1a8894ec,673768162bd316f69f3696a6,2024-11-15_12h27.06.171,Tarea de género gramatical,2024.2.2,Win32,60.0240096,,,,,,,,,,,,,,,,,,,,,,,,103.644,104.738,l,1,0.422,,[],[],[],[],[],[],[],0.422,1,104.739,105.239,,,,,,1101,FEM,CON,150,leche,,a,105.239,105.239,0.016927083,-0.4375,0,0,0,,0,1,1,200,1,,,,
,,,,,,eeac1da0343c561b2d10b8fa,66a626ef09d4e21e1a8894ec,673768162bd316f69f3696a6,2024-11-15_12h27.06.171,Tarea de género gramatical,2024.2.2,Win32,60.0240096,,,,,,,,,,,,,,,,,,,,,,,,105.241,106.389,a,1,0.467,,[],[],[],[],[],[],[],0.467,1,106.39,106.889,,,,,,1306,MAS,DIS,150,premio,la,l,106.891,106.892,0.016927083,-0.4375,0,0,0,,0,2,2,405,1,,,,
,,,,,,eeac1da0343c561b2d10b8fa,66a626ef09d4e21e1a8894ec,673768162bd316f69f3696a6,2024-11-15_12h27.06.171,Tarea de género gramatical,2024.2.2,Win32,60.0240096,,,,,,,,,,,,,,,,,,,,,,,,106.893,107.905,a,1,0.343,,[],[],[],[],[],[],[],0.343,1,107.905,108.405,,,,,,1014,MAS,CON,150,menú,,l,108.405,108.406,0.016927083,-0.4375,0,0,0,,0,3,3,113,1,,,,
,,,,,,eeac1da0343c561b2d10b8fa,66a626ef09d4e21e1a8894ec,673768162bd316f69f3696a6,2024-11-15_12h27.06.171,Tarea de género gramatical,2024.2.2,Win32,60.0240096,,,,,,,,,,,,,,,,,,,,,,,,108.408,109.588,a,1,0.501,,[],[],[],[],[],[],[],0.501,1,109.59,110.089,,,,,,1235,MAS,AGR,150,montón,el,l,110.089,110.089,0.016927083,-0.4375,0,0,0,,0,4,4,334,1,,,,
,,,,,,eeac1da0343c561b2d10b8fa,66a626ef09d4e21e1a8894ec,673768162bd316f69f3696a6,2024-11-15_12h27.06.171,Tarea de género gramatical,2024.2.2,Win32,60.0240096,,,,,,,,,,,,,,,,,,,,,,,,110.092,111.255,a,1,0.485,,[],[],[],[],[],[],[],0.485,1,111.256,111.755,,,,,,1066,MAS,DIS,150,coche,la,l,111.755,111.756,0.016927083,-0.4375,0,0,0,,0,5,5,165,1,,,,
,,,,,,eeac1da0343c561b2d10b8fa,66a626ef09d4e21e1a8894ec,673768162bd316f69f3696a6,2024-11-15_12h27.06.171,Tarea de género gramatical,2024.2.2,Win32,60.0240096,,,,,,,,,,,,,,,,,,,,,,,,111.758,112.922,l,1,0.492,,[],[],[],[],[],[],[],0.492,1,112.922,113.421,,,,,,1075,FEM,DIS,150,señal,el,a,113.424,113.426,0.016927083,-0.4375,0,0,0,,0,6,6,174,1,,,,
,,,,,,eeac1da0343c561b2d10b8fa,66a626ef09d4e21e1a8894ec,673768162bd316f69f3696a6,2024-11-15_12h27.06.171,Tarea de género gramatical,2024.2.2,Win32,60.0240096,,,,,,,,,,,,,,,,,,,,,,,,113.426,114.488,l,1,0.393,,[],[],[],[],[],[],[],0.393,1,114.489,114.988,,,,,,956,FEM,AGR,150,bola,la,a,114.989,114.989,0.016927083,-0.4375,0,0,0,,0,7,7,55,1,,,,
,,,,,,eeac1da0343c561b2d10b8fa,66a626ef09d4e21e1a8894ec,673768162bd316f69f3696a6,2024-11-15_12h27.06.171,Tarea de género gramatical,2024.2.2,Win32,60.0240096,,,,,,,,,,,,,,,,,,,,,,,,114.991,116.538,l,1,0.867,,[],[],[],[],[],[],[],0.867,1,116.539,117.039,,,,,,1051,FEM,DIS,150,noche,el,a,117.039,117.039,0.016927083,-0.4375,0,0,0,,0,8,8,150,1,,,,
,,,,,,eeac1da0343c561b2d10b8fa,66a626ef09d4e21e1a8894ec,673768162bd316f69f3696a6,2024-11-15_12h27.06.171,Tarea de género gramatical,2024.2.2,Win32,60.0240096,,,,,,,,,,,,,,,,,,,,,,,,117.041,118.255,l,1,0.534,,[],[],[],[],[],[],[],0.534,1,118.256,118.755,,,,,,1221,FEM,CON,150,comida,,a,118.755,118.756,0.016927083,-0.4375,0,0,0,,0,9,9,320,1,,,,
,,,,,,eeac1da0343c561b2d10b8fa,66a626ef09d4e21e1a8894ec,673768162bd316f69f3696a6,2024-11-15_12h27.06.171,Tarea de género gramatical,2024.2.2,Win32,60.0240096,,,,,,,,,,,,,,,,,,,,,,,,118.758,119.805,l,1,0.371,,[],[],[],[],[],[],[],0.371,1,119.805,120.305,,,,,,1058,FEM,AGR,150,chica,la,a,120.305,120.306,0.016927083,-0.4375,0,0,0,,0,10,10,157,1,,,,
,,,,,,eeac1da0343c561b2d10b8fa,66a626ef09d4e21e1a8894ec,673768162bd316f69f3696a6,2024-11-15_12h27.06.171,Tarea de género gramatical,2024.2.2,Win32,60.0240096,,,,,,,,,,,,,,,,,,,,,,,,120.307,121.306,a,1,0.324,,[],[],[],[],[],[],[],0.324,1,121.306,121.807,,,,,,1258,MAS,DIS,150,motivo,la,l,121.81,121.813,0.016927083,-0.4375,0,0,0,,0,11,11,357,1,,,,
,,,,,,eeac1da0343c561b2d10b8fa,66a626ef09d4e21e1a8894ec,673768162bd316f69f3696a6,2024-11-15_12h27.06.171,Tarea de género gramatical,2024.2.2,Win32,60.0240096,,,,,,,,,,,,,,,,,,,,,,,,121.815,122.906,a,1,0.417,,[],[],[],[],[],[],[],0.417,1,122.908,123.406,,,,,,1146,MAS,CON,150,humor,,l,123.406,123.407,0.016927083,-0.4375,0,0,0,,0,12,12,245,1,,,,
,,,,,,eeac1da0343c561b2d10b8fa,66a626ef09d4e21e1a8894ec,673768162bd316f69f3696a6,2024-11-15_12h27.06.171,Tarea de género gramatical,2024.2.2,Win32,60.0240096,,,,,,,,,,,,,,,,,,,,,,,,123.41,124.506,a,1,0.424,,[],[],[],[],[],[],[],0.424,1,124.506,125.006,,,,,,1157,MAS,AGR,150,pecho,el,l,125.006,125.007,0.016927083,-0.4375,0,0,0,,0,13,13,256,1,,,,
,,,,,,eeac1da0343c561b2d10b8fa,66a626ef09d4e21e1a8894ec,673768162bd316f69f3696a6,2024-11-15_12h27.06.171,Tarea de género gramatical,2024.2.2,Win32,60.0240096,,,,,,,,,,,,,,,,,,,,,,,,125.009,126.038,a,1,0.35,,[],[],[],[],[],[],[],0.35,1,126.039,126.538,,,,,,1265,MAS,AGR,150,código,el,l,126.539,126.539,0.016927083,-0.4375,0,0,0,,0,14,14,364,1,,,,
,,,,,,eeac1da0343c561b2d10b8fa,66a626ef09d4e21e1a8894ec,673768162bd316f69f3696a6,2024-11-15_12h27.06.171,Tarea de género gramatical,2024.2.2,Win32,60.0240096,,,,,,,,,,,,,,,,,,,,,,,,126.541,127.556,a,1,0.339,,[],[],[],[],[],[],[],0.339,1,127.556,128.055,,,,,,1024,MAS,DIS,150,clan,la,l,128.058,128.06,0.016927083,-0.4375,0,0,0,,0,15,15,123,1,,,,
,,,,,,eeac1da0343c561b2d10b8fa,66a626ef09d4e21e1a8894ec,673768162bd316f69f3696a6,2024-11-15_12h27.06.171,Tarea de género gramatical,2024.2.2,Win32,60.0240096,,,,,,,,,,,,,,,,,,,,,,,,128.061,129.056,a,1,0.325,,[],[],[],[],[],[],[],0.325,1,129.056,129.555,,,,,,1061,MAS,AGR,150,chico,el,l,129.555,129.556,0.016927083,-0.4375,0,0,0,,0,16,16,160,1,,,,
,,,,,,eeac1da0343c561b2d10b8fa,66a626ef09d4e21e1a8894ec,673768162bd316f69f3696a6,2024-11-15_12h27.06.171,Tarea de género gramatical,2024.2.2,Win32,60.0240096,,,,,,,,,,,,,,,,,,,,,,,,129.558,130.641,l,1,0.428,,[],[],[],[],[],[],[],0.428,1,130.642,131.139,,,,,,1310,FEM,AGR,150,piedad,la,a,131.139,131.139,0.016927083,-0.4375,0,0,0,,0,17,17,409,1,,,,
,,,,,,eeac1da0343c561b2d10b8fa,66a626ef09d4e21e1a8894ec,673768162bd316f69f3696a6,2024-11-15_12h27.06.171,Tarea de género gramatical,2024.2.2,Win32,60.0240096,,,,,,,,,,,,,,,,,,,,,,,,131.142,132.205,l,1,0.387,,[],[],[],[],[],[],[],0.387,1,132.206,132.706,,,,,,932,FEM,AGR,150,caja,la,a,132.706,132.706,0.016927083,-0.4375,0,0,0,,0,18,18,31,1,,,,
,,,,,,eeac1da0343c561b2d10b8fa,66a626ef09d4e21e1a8894ec,673768162bd316f69f3696a6,2024-11-15_12h27.06.171,Tarea de género gramatical,2024.2.2,Win32,60.0240096,,,,,,,,,,,,,,,,,,,,,,,,132.708,134.055,l,1,0.669,,[],[],[],[],[],[],[],0.669,1,134.056,134.556,,,,,,961,FEM,DIS,150,ruta,el,a,134.556,134.556,0.016927083,-0.4375,0,0,0,,0,19,19,60,1,,,,
,,,,,,eeac1da0343c561b2d10b8fa,66a626ef09d4e21e1a8894ec,673768162bd316f69f3696a6,2024-11-15_12h27.06.171,Tarea de género gramatical,2024.2.2,Win32,60.0240096,,,,,,,,,,,,,,,,,,,,,,,,134.559,135.656,l,1,0.419,,[],[],[],[],[],[],[],0.419,1,135.656,136.156,,,,,,1263,FEM,CON,150,unidad,,a,136.158,136.159,0.016927083,-0.4375,0,0,0,,0,20,20,362,1,,,,
,,,,,,eeac1da0343c561b2d10b8fa,66a626ef09d4e21e1a8894ec,673768162bd316f69f3696a6,2024-11-15_12h27.06.171,Tarea de género gramatical,2024.2.2,Win32,60.0240096,,,,,,,,,,,,,,,,,,,,,,,,136.16,137.156,l,1,0.317,,[],[],[],[],[],[],[],0.317,1,137.156,137.656,,,,,,908,FEM,AGR,150,idea,la,a,137.656,137.656,0.016927083,-0.4375,0,0,0,,0,21,21,7,1,,,,
,,,,,,eeac1da0343c561b2d10b8fa,66a626ef09d4e21e1a8894ec,673768162bd316f69f3696a6,2024-11-15_12h27.06.171,Tarea de género gramatical,2024.2.2,Win32,60.0240096,,,,,,,,,,,,,,,,,,,,,,,,137.659,138.79,a,1,0.454,,[],[],[],[],[],[],[],0.454,1,138.79,139.289,,,,,,1043,MAS,AGR,150,faro,el,l,139.289,139.289,0.016927083,-0.4375,0,0,0,,0,22,22,142,1,,,,
,,,,,,eeac1da0343c561b2d10b8fa,66a626ef09d4e21e1a8894ec,673768162bd316f69f3696a6,2024-11-15_12h27.06.171,Tarea de género gramatical,2024.2.2,Win32,60.0240096,,,,,,,,,,,,,,,,,,,,,,,,139.291,140.322,a,1,0.35,,[],[],[],[],[],[],[],0.35,1,140.323,140.823,,,,,,1055,MAS,AGR,150,mundo,el,l,140.823,140.823,0.016927083,-0.4375,0,0,0,,0,23,23,154,1,,,,
,,,,,,eeac1da0343c561b2d10b8fa,66a626ef09d4e21e1a8894ec,673768162bd316f69f3696a6,2024-11-15_12h27.06.171,Tarea de género gramatical,2024.2.2,Win32,60.0240096,,,,,,,,,,,,,,,,,,,,,,,,140.826,141.906,l,1,0.407,,[],[],[],[],[],[],[],0.407,1,141.906,142.406,,,,,,1047,FEM,CON,150,grúa,,a,142.408,142.41,0.016927083,-0.4375,0,0,0,,0,24,24,146,1,,,,
,,,,,,eeac1da0343c561b2d10b8fa,66a626ef09d4e21e1a8894ec,673768162bd316f69f3696a6,2024-11-15_12h27.06.171,Tarea de género gramatical,2024.2.2,Win32,60.0240096,,,,,,,,,,,,,,,,,,,,,,,,142.411,143.441,a,1,0.36,,[],[],[],[],[],[],[],0.36,1,143.442,143.939,,,,,,1320,MAS,CON,150,helado,,l,143.939,143.94,0.016927083,-0.4375,0,0,0,,0,25,25,419,1,,,,
,,,,,,eeac1da0343c561b2d10b8fa,66a626ef09d4e21e1a8894ec,673768162bd316f69f3696a6,2024-11-15_12h27.06.171,Tarea de género gramatical,2024.2.2,Win32,60.0240096,,,,,,,,,,,,,,,,,,,,,,,,143.942,145.022,l,1,0.402,,[],[],[],[],[],[],[],0.402,1,145.024,145.523,,,,,,1315,FEM,DIS,150,cabina,el,a,145.523,145.523,0.016927083,-0.4375,0,0,0,,0,26,26,414,1,,,,
,,,,,,eeac1da0343c561b2d10b8fa,66a626ef09d4e21e1a8894ec,673768162bd316f69f3696a6,2024-11-15_12h27.06.171,Tarea de género gramatical,2024.2.2,Win32,60.0240096,,,,,,,,,,,,,,,,,,,,,,,,145.526,146.506,a,1,0.307,,[],[],[],[],[],[],[],0.307,1,146.506,147.006,,,,,,929,MAS,AGR,150,frío,el,l,147.006,147.006,0.016927083,-0.4375,0,0,0,,0,27,27,28,1,,,,
,,,,,,eeac1da0343c561b2d10b8fa,66a626ef09d4e21e1a8894ec,673768162bd316f69f3696a6,2024-11-15_12h27.06.171,Tarea de género gramatical,2024.2.2,Win32,60.0240096,,,,,,,,,,,,,,,,,,,,,,,,147.009,148.023,l,1,0.334,,[],[],[],[],[],[],[],0.334,1,148.025,148.523,,,,,,1071,FEM,CON,150,mitad,,a,148.523,148.523,0.016927083,-0.4375,0,0,0,,0,28,28,170,1,,,,
,,,,,,eeac1da0343c561b2d10b8fa,66a626ef09d4e21e1a8894ec,673768162bd316f69f3696a6,2024-11-15_12h27.06.171,Tarea de género gramatical,2024.2.2,Win32,60.0240096,,,,,,,,,,,,,,,,,,,,,,,,148.526,149.64,a,1,0.444,,[],[],[],[],[],[],[],0.444,1,149.641,150.139,,,,,,1002,MAS,CON,150,coro,,l,150.141,150.144,0.016927083,-0.4375,0,0,0,,0,29,29,101,1,,,,
,,,,,,eeac1da0343c561b2d10b8fa,66a626ef09d4e21e1a8894ec,673768162bd316f69f3696a6,2024-11-15_12h27.06.171,Tarea de género gramatical,2024.2.2,Win32,60.0240096,,,,,,,,,,,,,,,,,,,,,,,,150.145,151.156,l,1,0.334,,[],[],[],[],[],[],[],0.334,1,151.156,151.656,,,,,,1161,FEM,CON,150,cueva,,a,151.656,151.657,0.016927083,-0.4375,0,0,0,,0,30,30,260,1,,,,
,,,,,,eeac1da0343c561b2d10b8fa,66a626ef09d4e21e1a8894ec,673768162bd316f69f3696a6,2024-11-15_12h27.06.171,Tarea de género gramatical,2024.2.2,Win32,60.0240096,,,,,,,,,,,,,,,,,,,,,,,,151.658,152.707,a,1,0.367,,[],[],[],[],[],[],[],0.367,1,152.707,153.207,,,,,,1272,MAS,CON,150,delito,,l,153.207,153.207,0.016927083,-0.4375,0,0,0,,0,31,31,371,1,,,,
,,,,,,eeac1da0343c561b2d10b8fa,66a626ef09d4e21e1a8894ec,673768162bd316f69f3696a6,2024-11-15_12h27.06.171,Tarea de género gramatical,2024.2.2,Win32,60.0240096,,,,,,,,,,,,,,,,,,,,,,,,153.208,154.274,a,1,0.392,,[],[],[],[],[],[],[],0.392,1,154.275,154.773,,,,,,1302,MAS,CON,150,ladrón,,l,154.774,154.774,0.016927083,-0.4375,0,0,0,,0,32,32,401,1,,,,
,,,,,,eeac1da0343c561b2d10b8fa,66a626ef09d4e21e1a8894ec,673768162bd316f69f3696a6,2024-11-15_12h27.06.171,Tarea de género gramatical,2024.2.2,Win32,60.0240096,,,,,,,,,,,,,,,,,,,,,,,,154.776,155.826,l,1,0.368,,[],[],[],[],[],[],[],0.368,1,155.827,156.325,,,,,,1323,FEM,CON,150,poesía,,a,156.328,156.33,0.016927083,-0.4375,0,0,0,,0,33,33,422,1,,,,
,,,,,,eeac1da0343c561b2d10b8fa,66a626ef09d4e21e1a8894ec,673768162bd316f69f3696a6,2024-11-15_12h27.06.171,Tarea de género gramatical,2024.2.2,Win32,60.0240096,,,,,,,,,,,,,,,,,,,,,,,,156.332,157.473,a,1,0.469,,[],[],[],[],[],[],[],0.469,1,157.474,157.974,,,,,,1349,MAS,AGR,150,payaso,el,l,157.974,157.976,0.016927083,-0.4375,0,0,0,,0,34,34,448,1,,,,
,,,,,,eeac1da0343c561b2d10b8fa,66a626ef09d4e21e1a8894ec,673768162bd316f69f3696a6,2024-11-15_12h27.06.171,Tarea de género gramatical,2024.2.2,Win32,60.0240096,,,,,,,,,,,,,,,,,,,,,,,,157.977,159.006,a,1,0.352,,[],[],[],[],[],[],[],0.352,1,159.007,159.507,,,,,,1008,MAS,CON,150,hilo,,l,159.507,159.507,0.016927083,-0.4375,0,0,0,,0,35,35,107,1,,,,
,,,,,,eeac1da0343c561b2d10b8fa,66a626ef09d4e21e1a8894ec,673768162bd316f69f3696a6,2024-11-15_12h27.06.171,Tarea de género gramatical,2024.2.2,Win32,60.0240096,,,,,,,,,,,,,,,,,,,,,,,,159.51,160.507,l,1,0.317,,[],[],[],[],[],[],[],0.317,1,160.507,161.007,,,,,,1286,FEM,AGR,150,sombra,la,a,161.007,161.007,0.016927083,-0.4375,0,0,0,,0,36,36,385,1,,,,
,,,,,,eeac1da0343c561b2d10b8fa,66a626ef09d4e21e1a8894ec,673768162bd316f69f3696a6,2024-11-15_12h27.06.171,Tarea de género gramatical,2024.2.2,Win32,60.0240096,,,,,,,,,,,,,,,,,,,,,,,,161.009,162.007,l,1,0.319,,[],[],[],[],[],[],[],0.319,1,162.007,162.507,,,,,,1160,FEM,AGR,150,barra,la,a,162.507,162.508,0.016927083,-0.4375,0,0,0,,0,37,37,259,1,,,,
,,,,,,eeac1da0343c561b2d10b8fa,66a626ef09d4e21e1a8894ec,673768162bd316f69f3696a6,2024-11-15_12h27.06.171,Tarea de género gramatical,2024.2.2,Win32,60.0240096,,,,,,,,,,,,,,,,,,,,,,,,162.51,163.54,l,1,0.356,,[],[],[],[],[],[],[],0.356,1,163.54,164.039,,,,,,1201,FEM,DIS,150,verdad,el,a,164.042,164.044,0.016927083,-0.4375,0,0,0,,0,38,38,300,1,,,,
,,,,,,eeac1da0343c561b2d10b8fa,66a626ef09d4e21e1a8894ec,673768162bd316f69f3696a6,2024-11-15_12h27.06.171,Tarea de género gramatical,2024.2.2,Win32,60.0240096,,,,,,,,,,,,,,,,,,,,,,,,164.046,165.107,l,1,0.389,,[],[],[],[],[],[],[],0.389,1,165.108,165.609,,,,,,1124,FEM,AGR,150,arena,la,a,165.609,165.609,0.016927083,-0.4375,0,0,0,,0,39,39,223,1,,,,
,,,,,,eeac1da0343c561b2d10b8fa,66a626ef09d4e21e1a8894ec,673768162bd316f69f3696a6,2024-11-15_12h27.06.171,Tarea de género gramatical,2024.2.2,Win32,60.0240096,,,,,,,,,,,,,,,,,,,,,,,,165.611,166.707,l,1,0.415,,[],[],[],[],[],[],[],0.415,1,166.707,167.207,,,,,,1118,FEM,AGR,150,nieve,la,a,167.207,167.207,0.016927083,-0.4375,0,0,0,,0,40,40,217,1,,,,
,,,,,,eeac1da0343c561b2d10b8fa,66a626ef09d4e21e1a8894ec,673768162bd316f69f3696a6,2024-11-15_12h27.06.171,Tarea de género gramatical,2024.2.2,Win32,60.0240096,,,,,,,,,,,,,,,,,,,,,,,,167.209,168.29,a,1,0.4,,[],[],[],[],[],[],[],0.4,1,168.291,168.79,,,,,,910,MAS,DIS,150,niño,la,l,168.79,168.79,0.016927083,-0.4375,0,0,0,,0,41,41,9,1,,,,
,,,,,,eeac1da0343c561b2d10b8fa,66a626ef09d4e21e1a8894ec,673768162bd316f69f3696a6,2024-11-15_12h27.06.171,Tarea de género gramatical,2024.2.2,Win32,60.0240096,,,,,,,,,,,,,,,,,,,,,,,,168.792,169.857,a,1,0.386,,[],[],[],[],[],[],[],0.386,1,169.857,170.357,,,,,,1050,MAS,CON,150,mozo,,l,170.359,170.361,0.016927083,-0.4375,0,0,0,,0,42,42,149,1,,,,
,,,,,,eeac1da0343c561b2d10b8fa,66a626ef09d4e21e1a8894ec,673768162bd316f69f3696a6,2024-11-15_12h27.06.171,Tarea de género gramatical,2024.2.2,Win32,60.0240096,,,,,,,,,,,,,,,,,,,,,,,,170.361,171.411,a,1,0.38,,[],[],[],[],[],[],[],0.38,1,171.411,171.907,,,,,,1295,MAS,AGR,150,correo,el,l,171.907,171.907,0.016927083,-0.4375,0,0,0,,0,43,43,394,1,,,,
,,,,,,eeac1da0343c561b2d10b8fa,66a626ef09d4e21e1a8894ec,673768162bd316f69f3696a6,2024-11-15_12h27.06.171,Tarea de género gramatical,2024.2.2,Win32,60.0240096,,,,,,,,,,,,,,,,,,,,,,,,171.91,173.007,l,1,0.417,,[],[],[],[],[],[],[],0.417,1,173.008,173.507,,,,,,979,FEM,DIS,150,mina,el,a,173.507,173.507,0.016927083,-0.4375,0,0,0,,0,44,44,78,1,,,,
,,,,,,eeac1da0343c561b2d10b8fa,66a626ef09d4e21e1a8894ec,673768162bd316f69f3696a6,2024-11-15_12h27.06.171,Tarea de género gramatical,2024.2.2,Win32,60.0240096,,,,,,,,,,,,,,,,,,,,,,,,173.509,174.574,l,1,0.388,,[],[],[],[],[],[],[],0.388,1,174.575,175.074,,,,,,1183,FEM,DIS,150,pluma,el,a,175.074,175.075,0.016927083,-0.4375,0,0,0,,0,45,45,282,1,,,,
,,,,,,eeac1da0343c561b2d10b8fa,66a626ef09d4e21e1a8894ec,673768162bd316f69f3696a6,2024-11-15_12h27.06.171,Tarea de género gramatical,2024.2.2,Win32,60.0240096,,,,,,,,,,,,,,,,,,,,,,,,175.077,176.09,a,1,0.34,,[],[],[],[],[],[],[],0.34,1,176.09,176.592,,,,,,1342,MAS,DIS,150,cuadro,la,l,176.592,176.592,0.016927083,-0.4375,0,0,0,,0,46,46,441,1,,,,
,,,,,,eeac1da0343c561b2d10b8fa,66a626ef09d4e21e1a8894ec,673768162bd316f69f3696a6,2024-11-15_12h27.06.171,Tarea de género gramatical,2024.2.2,Win32,60.0240096,,,,,,,,,,,,,,,,,,,,,,,,176.594,177.657,a,0,0.393,,[],[],[],[],[],[],[],0.393,0,177.66,178.157,,,,,,1141,FEM,DIS,150,pasta,el,a,178.159,178.16,0.016927083,-0.4375,0,0,0,,0,47,47,240,1,,,,
,,,,,,eeac1da0343c561b2d10b8fa,66a626ef09d4e21e1a8894ec,673768162bd316f69f3696a6,2024-11-15_12h27.06.171,Tarea de género gramatical,2024.2.2,Win32,60.0240096,,,,,,,,,,,,,,,,,,,,,,,,178.161,179.257,a,1,0.418,,[],[],[],[],[],[],[],0.418,1,179.258,179.757,,,,,,935,MAS,AGR,150,taxi,el,l,179.757,179.758,0.016927083,-0.4375,0,0,0,,0,48,48,34,1,,,,
,,,,,,eeac1da0343c561b2d10b8fa,66a626ef09d4e21e1a8894ec,673768162bd316f69f3696a6,2024-11-15_12h27.06.171,Tarea de género gramatical,2024.2.2,Win32,60.0240096,,,,,,,,,,,,,,,,,,,,,,,,179.759,180.975,a,1,0.534,,[],[],[],[],[],[],[],0.534,1,180.975,181.475,,,,,,1006,MAS,DIS,150,test,la,l,181.475,181.475,0.016927083,-0.4375,0,0,0,,0,49,49,105,1,,,,
,,,,,,eeac1da0343c561b2d10b8fa,66a626ef09d4e21e1a8894ec,673768162bd316f69f3696a6,2024-11-15_12h27.06.171,Tarea de género gramatical,2024.2.2,Win32,60.0240096,,,,,,,,,,,,,,,,,,,,,,,,181.477,182.475,l,1,0.317,,[],[],[],[],[],[],[],0.317,1,182.475,182.974,,,,,,1251,FEM,CON,150,espada,,a,182.974,182.974,0.016927083,-0.4375,0,0,0,,0,50,50,350,1,,,,
,,,,,,eeac1da0343c561b2d10b8fa,66a626ef09d4e21e1a8894ec,673768162bd316f69f3696a6,2024-11-15_12h27.06.171,Tarea de género gramatical,2024.2.2,Win32,60.0240096,,,,,,,,,,,,,,,,,,,,,,,,182.977,184.075,a,1,0.424,,[],[],[],[],[],[],[],0.424,1,184.075,184.575,,,,,,1217,MAS,AGR,150,número,el,l,184.577,184.578,0.016927083,-0.4375,0,0,0,,0,51,51,316,1,,,,
,,,,,,eeac1da0343c561b2d10b8fa,66a626ef09d4e21e1a8894ec,673768162bd316f69f3696a6,2024-11-15_12h27.06.171,Tarea de género gramatical,2024.2.2,Win32,60.0240096,,,,,,,,,,,,,,,,,,,,,,,,184.579,185.725,a,1,0.468,,[],[],[],[],[],[],[],0.468,1,185.725,186.225,,,,,,959,MAS,AGR,150,lobo,el,l,186.225,186.225,0.016927083,-0.4375,0,0,0,,0,52,52,58,1,,,,
,,,,,,eeac1da0343c561b2d10b8fa,66a626ef09d4e21e1a8894ec,673768162bd316f69f3696a6,2024-11-15_12h27.06.171,Tarea de género gramatical,2024.2.2,Win32,60.0240096,,,,,,,,,,,,,,,,,,,,,,,,186.227,187.29,a,1,0.39,,[],[],[],[],[],[],[],0.39,1,187.29,187.791,,,,,,1175,MAS,AGR,150,disco,el,l,187.791,187.791,0.016927083,-0.4375,0,0,0,,0,53,53,274,1,,,,
,,,,,,eeac1da0343c561b2d10b8fa,66a626ef09d4e21e1a8894ec,673768162bd316f69f3696a6,2024-11-15_12h27.06.171,Tarea de género gramatical,2024.2.2,Win32,60.0240096,,,,,,,,,,,,,,,,,,,,,,,,187.793,188.924,l,1,0.468,,[],[],[],[],[],[],[],0.468,1,188.924,189.427,,,,,,1305,FEM,CON,150,parada,,a,189.428,189.429,0.016927083,-0.4375,0,0,0,,0,54,54,404,1,,,,
,,,,,,eeac1da0343c561b2d10b8fa,66a626ef09d4e21e1a8894ec,673768162bd316f69f3696a6,2024-11-15_12h27.06.171,Tarea de género gramatical,2024.2.2,Win32,60.0240096,,,,,,,,,,,,,,,,,,,,,,,,189.433,190.576,l,1,0.468,,[],[],[],[],[],[],[],0.468,1,190.577,191.075,,,,,,980,FEM,AGR,150,vaca,la,a,191.075,191.075,0.016927083,-0.4375,0,0,0,,0,55,55,79,1,,,,
,,,,,,eeac1da0343c561b2d10b8fa,66a626ef09d4e21e1a8894ec,673768162bd316f69f3696a6,2024-11-15_12h27.06.171,Tarea de género gramatical,2024.2.2,Win32,60.0240096,,,,,,,,,,,,,,,,,,,,,,,,191.077,192.374,a,1,0.618,,[],[],[],[],[],[],[],0.618,1,192.375,192.874,,,,,,1140,MAS,CON,150,ruido,,l,192.876,192.879,0.016927083,-0.4375,0,0,0,,0,56,56,239,1,,,,
,,,,,,eeac1da0343c561b2d10b8fa,66a626ef09d4e21e1a8894ec,673768162bd316f69f3696a6,2024-11-15_12h27.06.171,Tarea de género gramatical,2024.2.2,Win32,60.0240096,,,,,,,,,,,,,,,,,,,,,,,,192.88,194.007,l,1,0.45,,[],[],[],[],[],[],[],0.45,1,194.008,194.509,,,,,,1148,FEM,AGR,150,letra,la,a,194.509,194.509,0.016927083,-0.4375,0,0,0,,0,57,57,247,1,,,,
,,,,,,eeac1da0343c561b2d10b8fa,66a626ef09d4e21e1a8894ec,673768162bd316f69f3696a6,2024-11-15_12h27.06.171,Tarea de género gramatical,2024.2.2,Win32,60.0240096,,,,,,,,,,,,,,,,,,,,,,,,194.512,195.59,a,1,0.4,,[],[],[],[],[],[],[],0.4,1,195.591,196.091,,,,,,904,MAS,DIS,150,hijo,la,l,196.091,196.092,0.016927083,-0.4375,0,0,0,,0,58,58,3,1,,,,
,,,,,,eeac1da0343c561b2d10b8fa,66a626ef09d4e21e1a8894ec,673768162bd316f69f3696a6,2024-11-15_12h27.06.171,Tarea de género gramatical,2024.2.2,Win32,60.0240096,,,,,,,,,,,,,,,,,,,,,,,,196.095,197.207,l,1,0.433,,[],[],[],[],[],[],[],0.433,1,197.208,197.708,,,,,,1341,FEM,CON,150,medida,,a,197.708,197.708,0.016927083,-0.4375,0,0,0,,0,59,59,440,1,,,,
,,,,,,eeac1da0343c561b2d10b8fa,66a626ef09d4e21e1a8894ec,673768162bd316f69f3696a6,2024-11-15_12h27.06.171,Tarea de género gramatical,2024.2.2,Win32,60.0240096,,,,,,,,,,,,,,,,,,,,,,,,197.71,198.758,l,1,0.385,,[],[],[],[],[],[],[],0.385,1,198.759,199.257,,,,,,1189,FEM,DIS,150,tabla,el,a,199.259,199.261,0.016927083,-0.4375,0,0,0,,0,60,60,288,1,,,,
,,,,,,eeac1da0343c561b2d10b8fa,66a626ef09d4e21e1a8894ec,673768162bd316f69f3696a6,2024-11-15_12h27.06.171,Tarea de género gramatical,2024.2.2,Win32,60.0240096,,,,,,,,,,,,,,,,,,,,,,,,199.262,200.608,l,1,0.668,,[],[],[],[],[],[],[],0.668,1,200.608,201.107,,,,,,1039,FEM,DIS,150,pipa,el,a,201.107,201.108,0.016927083,-0.4375,0,0,0,,0,61,61,138,1,,,,
,,,,,,eeac1da0343c561b2d10b8fa,66a626ef09d4e21e1a8894ec,673768162bd316f69f3696a6,2024-11-15_12h27.06.171,Tarea de género gramatical,2024.2.2,Win32,60.0240096,,,,,,,,,,,,,,,,,,,,,,,,201.11,202.191,l,1,0.404,,[],[],[],[],[],[],[],0.404,1,202.192,202.691,,,,,,902,FEM,AGR,150,vida,la,a,202.691,202.692,0.016927083,-0.4375,0,0,0,,0,62,62,1,1,,,,
,,,,,,eeac1da0343c561b2d10b8fa,66a626ef09d4e21e1a8894ec,673768162bd316f69f3696a6,2024-11-15_12h27.06.171,Tarea de género gramatical,2024.2.2,Win32,60.0240096,,,,,,,,,,,,,,,,,,,,,,,,202.695,204.357,a,1,0.984,,[],[],[],[],[],[],[],0.984,1,204.357,204.858,,,,,,1193,MAS,AGR,150,patio,el,l,204.859,204.859,0.016927083,-0.4375,0,0,0,,0,63,63,292,1,,,,
,,,,,,eeac1da0343c561b2d10b8fa,66a626ef09d4e21e1a8894ec,673768162bd316f69f3696a6,2024-11-15_12h27.06.171,Tarea de género gramatical,2024.2.2,Win32,60.0240096,,,,,,,,,,,,,,,,,,,,,,,,204.861,206.174,a,1,0.635,,[],[],[],[],[],[],[],0.635,1,206.175,206.675,,,,,,1204,MAS,DIS,150,tiempo,la,l,206.675,206.675,0.016927083,-0.4375,0,0,0,,0,64,64,303,1,,,,
,,,,,,eeac1da0343c561b2d10b8fa,66a626ef09d4e21e1a8894ec,673768162bd316f69f3696a6,2024-11-15_12h27.06.171,Tarea de género gramatical,2024.2.2,Win32,60.0240096,,,,,,,,,,,,,,,,,,,,,,,,206.677,207.725,l,1,0.367,,[],[],[],[],[],[],[],0.367,1,207.725,208.225,,,,,,987,FEM,CON,150,risa,,a,208.226,208.228,0.016927083,-0.4375,0,0,0,,0,65,65,86,1,,,,
,,,,,,eeac1da0343c561b2d10b8fa,66a626ef09d4e21e1a8894ec,673768162bd316f69f3696a6,2024-11-15_12h27.06.171,Tarea de género gramatical,2024.2.2,Win32,60.0240096,,,,,,,,,,,,,,,,,,,,,,,,208.229,209.308,l,0,0.405,,[],[],[],[],[],[],[],0.405,0,209.309,209.808,,,,,,1104,MAS,CON,150,papel,,l,209.808,209.808,0.016927083,-0.4375,0,0,0,,0,66,66,203,1,,,,
,,,,,,eeac1da0343c561b2d10b8fa,66a626ef09d4e21e1a8894ec,673768162bd316f69f3696a6,2024-11-15_12h27.06.171,Tarea de género gramatical,2024.2.2,Win32,60.0240096,,,,,,,,,,,,,,,,,,,,,,,,209.81,210.977,l,1,0.495,,[],[],[],[],[],[],[],0.495,1,210.978,211.475,,,,,,1130,FEM,AGR,150,regla,la,a,211.475,211.475,0.016927083,-0.4375,0,0,0,,0,67,67,229,1,,,,
,,,,,,eeac1da0343c561b2d10b8fa,66a626ef09d4e21e1a8894ec,673768162bd316f69f3696a6,2024-11-15_12h27.06.171,Tarea de género gramatical,2024.2.2,Win32,60.0240096,,,,,,,,,,,,,,,,,,,,,,,,211.477,212.591,l,1,0.451,,[],[],[],[],[],[],[],0.451,1,212.592,213.092,,,,,,1159,FEM,DIS,150,prima,el,a,213.092,213.092,0.016927083,-0.4375,0,0,0,,0,68,68,258,1,,,,
,,,,,,eeac1da0343c561b2d10b8fa,66a626ef09d4e21e1a8894ec,673768162bd316f69f3696a6,2024-11-15_12h27.06.171,Tarea de género gramatical,2024.2.2,Win32,60.0240096,,,,,,,,,,,,,,,,,,,,,,,,213.094,214.391,a,1,0.617,,[],[],[],[],[],[],[],0.617,1,214.391,214.891,,,,,,1324,MAS,DIS,150,rastro,la,l,214.894,214.896,0.016927083,-0.4375,0,0,0,,0,69,69,423,1,,,,
,,,,,,eeac1da0343c561b2d10b8fa,66a626ef09d4e21e1a8894ec,673768162bd316f69f3696a6,2024-11-15_12h27.06.171,Tarea de género gramatical,2024.2.2,Win32,60.0240096,,,,,,,,,,,,,,,,,,,,,,,,214.896,216.042,a,1,0.474,,[],[],[],[],[],[],[],0.474,1,216.042,216.541,,,,,,948,MAS,CON,150,loco,,l,216.541,216.542,0.016927083,-0.4375,0,0,0,,0,70,70,47,1,,,,
,,,,,,eeac1da0343c561b2d10b8fa,66a626ef09d4e21e1a8894ec,673768162bd316f69f3696a6,2024-11-15_12h27.06.171,Tarea de género gramatical,2024.2.2,Win32,60.0240096,,,,,,,,,,,,,,,,,,,,,,,,216.544,217.742,a,1,0.517,,[],[],[],[],[],[],[],0.517,1,217.742,218.241,,,,,,1314,MAS,CON,150,sótano,,l,218.241,218.241,0.016927083,-0.4375,0,0,0,,0,71,71,413,1,,,,
,,,,,,eeac1da0343c561b2d10b8fa,66a626ef09d4e21e1a8894ec,673768162bd316f69f3696a6,2024-11-15_12h27.06.171,Tarea de género gramatical,2024.2.2,Win32,60.0240096,,,,,,,,,,,,,,,,,,,,,,,,218.244,219.242,l,1,0.325,,[],[],[],[],[],[],[],0.325,1,219.243,219.742,,,,,,1057,FEM,DIS,150,madre,el,a,219.742,219.742,0.016927083,-0.4375,0,0,0,,0,72,72,156,1,,,,
,,,,,,eeac1da0343c561b2d10b8fa,66a626ef09d4e21e1a8894ec,673768162bd316f69f3696a6,2024-11-15_12h27.06.171,Tarea de género gramatical,2024.2.2,Win32,60.0240096,,,,,,,,,,,,,,,,,,,,,,,,219.745,220.959,a,1,0.536,,[],[],[],[],[],[],[],0.536,1,220.959,221.458,,,,,,1230,MAS,CON,150,estado,,l,221.458,221.459,0.016927083,-0.4375,0,0,0,,0,73,73,329,1,,,,
,,,,,,eeac1da0343c561b2d10b8fa,66a626ef09d4e21e1a8894ec,673768162bd316f69f3696a6,2024-11-15_12h27.06.171,Tarea de género gramatical,2024.2.2,Win32,60.0240096,,,,,,,,,,,,,,,,,,,,,,,,221.46,222.691,a,1,0.55,,[],[],[],[],[],[],[],0.55,1,222.691,223.194,,,,,,1114,MAS,DIS,150,fondo,la,l,223.196,223.2,0.016927083,-0.4375,0,0,0,,0,74,74,213,1,,,,
,,,,,,eeac1da0343c561b2d10b8fa,66a626ef09d4e21e1a8894ec,673768162bd316f69f3696a6,2024-11-15_12h27.06.171,Tarea de género gramatical,2024.2.2,Win32,60.0240096,,,,,,,,,,,,,,,,,,,,,,,,223.202,224.375,a,1,0.502,,[],[],[],[],[],[],[],0.502,1,224.377,224.875,,,,,,934,MAS,DIS,150,gato,la,l,224.875,224.875,0.016927083,-0.4375,0,0,0,,0,75,75,33,1,,,,
,,,,,,eeac1da0343c561b2d10b8fa,66a626ef09d4e21e1a8894ec,673768162bd316f69f3696a6,2024-11-15_12h27.06.171,Tarea de género gramatical,2024.2.2,Win32,60.0240096,,,,,,,,,,,,,,,,,,,,,,,,224.878,226.158,l,1,0.603,,[],[],[],[],[],[],[],0.603,1,226.158,226.659,,,,,,1184,FEM,AGR,150,fruta,la,a,226.659,226.659,0.016927083,-0.4375,0,0,0,,0,76,76,283,1,,,,
,,,,,,eeac1da0343c561b2d10b8fa,66a626ef09d4e21e1a8894ec,673768162bd316f69f3696a6,2024-11-15_12h27.06.171,Tarea de género gramatical,2024.2.2,Win32,60.0240096,,,,,,,,,,,,,,,,,,,,,,,,226.662,227.891,a,1,0.556,,[],[],[],[],[],[],[],0.556,1,227.893,228.392,,,,,,1000,MAS,DIS,150,nido,la,l,228.392,228.392,0.016927083,-0.4375,0,0,0,,0,77,77,99,1,,,,
,,,,,,eeac1da0343c561b2d10b8fa,66a626ef09d4e21e1a8894ec,673768162bd316f69f3696a6,2024-11-15_12h27.06.171,Tarea de género gramatical,2024.2.2,Win32,60.0240096,,,,,,,,,,,,,,,,,,,,,,,,228.394,229.392,l,1,0.319,,[],[],[],[],[],[],[],0.319,1,229.392,229.892,,,,,,1190,FEM,AGR,150,cabra,la,a,229.894,229.896,0.016927083,-0.4375,0,0,0,,0,78,78,289,1,,,,
,,,,,,eeac1da0343c561b2d10b8fa,66a626ef09d4e21e1a8894ec,673768162bd316f69f3696a6,2024-11-15_12h27.06.171,Tarea de género gramatical,2024.2.2,Win32,60.0240096,,,,,,,,,,,,,,,,,,,,,,,,229.897,231.209,l,1,0.642,,[],[],[],[],[],[],[],0.642,1,231.209,231.709,,,,,,1245,FEM,CON,150,pierna,,a,231.709,231.709,0.016927083,-0.4375,0,0,0,,0,79,79,344,1,,,,
,,,,,,eeac1da0343c561b2d10b8fa,66a626ef09d4e21e1a8894ec,673768162bd316f69f3696a6,2024-11-15_12h27.06.171,Tarea de género gramatical,2024.2.2,Win32,60.0240096,,,,,,,,,,,,,,,,,,,,,,,,231.711,233.178,l,1,0.793,,[],[],[],[],[],[],[],0.793,1,233.178,233.675,,,,,,1279,FEM,DIS,150,granja,el,a,233.675,233.675,0.016927083,-0.4375,0,0,0,,0,80,80,378,1,,,,
,,,,,,eeac1da0343c561b2d10b8fa,66a626ef09d4e21e1a8894ec,673768162bd316f69f3696a6,2024-11-15_12h27.06.171,Tarea de género gramatical,2024.2.2,Win32,60.0240096,,,,,,,,,,,,,,,,,,,,,,,,233.678,235.409,l,1,1.051,,[],[],[],[],[],[],[],1.051,1,235.41,235.909,,,,,,1135,FEM,DIS,150,torre,el,a,235.909,235.909,0.016927083,-0.4375,0,0,0,,0,81,81,234,1,,,,
,,,,,,eeac1da0343c561b2d10b8fa,66a626ef09d4e21e1a8894ec,673768162bd316f69f3696a6,2024-11-15_12h27.06.171,Tarea de género gramatical,2024.2.2,Win32,60.0240096,,,,,,,,,,,,,,,,,,,,,,,,235.91,236.976,a,1,0.395,,[],[],[],[],[],[],[],0.395,1,236.976,237.475,,,,,,1062,MAS,CON,150,miedo,,l,237.475,237.476,0.016927083,-0.4375,0,0,0,,0,82,82,161,1,,,,
,,,,,,eeac1da0343c561b2d10b8fa,66a626ef09d4e21e1a8894ec,673768162bd316f69f3696a6,2024-11-15_12h27.06.171,Tarea de género gramatical,2024.2.2,Win32,60.0240096,,,,,,,,,,,,,,,,,,,,,,,,237.478,238.442,l,1,0.283,,[],[],[],[],[],[],[],0.283,1,238.442,238.942,,,,,,1233,FEM,CON,150,locura,,a,238.945,238.946,0.016927083,-0.4375,0,0,0,,0,83,83,332,1,,,,
,,,,,,eeac1da0343c561b2d10b8fa,66a626ef09d4e21e1a8894ec,673768162bd316f69f3696a6,2024-11-15_12h27.06.171,Tarea de género gramatical,2024.2.2,Win32,60.0240096,,,,,,,,,,,,,,,,,,,,,,,,238.947,240.159,l,1,0.534,,[],[],[],[],[],[],[],0.534,1,240.159,240.659,,,,,,1227,FEM,CON,150,tienda,,a,240.659,240.66,0.016927083,-0.4375,0,0,0,,0,84,84,326,1,,,,
,,,,,,eeac1da0343c561b2d10b8fa,66a626ef09d4e21e1a8894ec,673768162bd316f69f3696a6,2024-11-15_12h27.06.171,Tarea de género gramatical,2024.2.2,Win32,60.0240096,,,,,,,,,,,,,,,,,,,,,,,,240.662,241.676,l,1,0.335,,[],[],[],[],[],[],[],0.335,1,241.676,242.176,,,,,,1094,FEM,AGR,150,banda,la,a,242.176,242.176,0.016927083,-0.4375,0,0,0,,0,85,85,193,1,,,,
,,,,,,eeac1da0343c561b2d10b8fa,66a626ef09d4e21e1a8894ec,673768162bd316f69f3696a6,2024-11-15_12h27.06.171,Tarea de género gramatical,2024.2.2,Win32,60.0240096,,,,,,,,,,,,,,,,,,,,,,,,242.178,243.325,a,1,0.467,,[],[],[],[],[],[],[],0.467,1,243.325,243.826,,,,,,1174,MAS,DIS,150,motor,la,l,243.826,243.826,0.016927083,-0.4375,0,0,0,,0,86,86,273,1,,,,
,,,,,,eeac1da0343c561b2d10b8fa,66a626ef09d4e21e1a8894ec,673768162bd316f69f3696a6,2024-11-15_12h27.06.171,Tarea de género gramatical,2024.2.2,Win32,60.0240096,,,,,,,,,,,,,,,,,,,,,,,,243.828,244.925,a,1,0.438,,[],[],[],[],[],[],[],0.438,1,244.926,245.426,,,,,,1337,MAS,AGR,150,hombro,el,l,245.428,245.43,0.016927083,-0.4375,0,0,0,,0,87,87,436,1,,,,
,,,,,,eeac1da0343c561b2d10b8fa,66a626ef09d4e21e1a8894ec,673768162bd316f69f3696a6,2024-11-15_12h27.06.171,Tarea de género gramatical,2024.2.2,Win32,60.0240096,,,,,,,,,,,,,,,,,,,,,,,,245.43,246.526,a,1,0.416,,[],[],[],[],[],[],[],0.416,1,246.526,247.026,,,,,,1247,MAS,AGR,150,cuello,el,l,247.026,247.026,0.016927083,-0.4375,0,0,0,,0,88,88,346,1,,,,
,,,,,,eeac1da0343c561b2d10b8fa,66a626ef09d4e21e1a8894ec,673768162bd316f69f3696a6,2024-11-15_12h27.06.171,Tarea de género gramatical,2024.2.2,Win32,60.0240096,,,,,,,,,,,,,,,,,,,,,,,,247.028,248.445,l,1,0.738,,[],[],[],[],[],[],[],0.738,1,248.446,248.942,,,,,,1195,FEM,DIS,150,grasa,el,a,248.942,248.942,0.016927083,-0.4375,0,0,0,,0,89,89,294,1,,,,
,,,,,,eeac1da0343c561b2d10b8fa,66a626ef09d4e21e1a8894ec,673768162bd316f69f3696a6,2024-11-15_12h27.06.171,Tarea de género gramatical,2024.2.2,Win32,60.0240096,,,,,,,,,,,,,,,,,,,,,,,,248.946,249.975,l,1,0.352,,[],[],[],[],[],[],[],0.352,1,249.976,250.476,,,,,,1046,FEM,AGR,150,lana,la,a,250.476,250.476,0.016927083,-0.4375,0,0,0,,0,90,90,145,1,,,,
,,,,,,eeac1da0343c561b2d10b8fa,66a626ef09d4e21e1a8894ec,673768162bd316f69f3696a6,2024-11-15_12h27.06.171,Tarea de género gramatical,2024.2.2,Win32,60.0240096,,,,,,,,,,,,,,,,,,,,,,,,250.478,251.709,a,1,0.554,,[],[],[],[],[],[],[],0.554,1,251.709,252.209,,,,,,1042,MAS,DIS,150,lodo,la,l,252.209,252.209,0.016927083,-0.4375,0,0,0,,0,91,91,141,1,,,,
,,,,,,eeac1da0343c561b2d10b8fa,66a626ef09d4e21e1a8894ec,673768162bd316f69f3696a6,2024-11-15_12h27.06.171,Tarea de género gramatical,2024.2.2,Win32,60.0240096,,,,,,,,,,,,,,,,,,,,,,,,252.211,253.426,a,1,0.551,,[],[],[],[],[],[],[],0.551,1,253.426,253.926,,,,,,1110,MAS,CON,150,baile,,l,253.927,253.929,0.016927083,-0.4375,0,0,0,,0,92,92,209,1,,,,
,,,,,,eeac1da0343c561b2d10b8fa,66a626ef09d4e21e1a8894ec,673768162bd316f69f3696a6,2024-11-15_12h27.06.171,Tarea de género gramatical,2024.2.2,Win32,60.0240096,,,,,,,,,,,,,,,,,,,,,,,,253.93,255.076,a,1,0.467,,[],[],[],[],[],[],[],0.467,1,255.076,255.575,,,,,,1091,MAS,AGR,150,dolor,el,l,255.575,255.577,0.016927083,-0.4375,0,0,0,,0,93,93,190,1,,,,
,,,,,,eeac1da0343c561b2d10b8fa,66a626ef09d4e21e1a8894ec,673768162bd316f69f3696a6,2024-11-15_12h27.06.171,Tarea de género gramatical,2024.2.2,Win32,60.0240096,,,,,,,,,,,,,,,,,,,,,,,,255.578,256.761,l,1,0.516,,[],[],[],[],[],[],[],0.516,1,256.763,257.26,,,,,,1243,FEM,DIS,150,trampa,el,a,257.26,257.261,0.016927083,-0.4375,0,0,0,,0,94,94,342,1,,,,
,,,,,,eeac1da0343c561b2d10b8fa,66a626ef09d4e21e1a8894ec,673768162bd316f69f3696a6,2024-11-15_12h27.06.171,Tarea de género gramatical,2024.2.2,Win32,60.0240096,,,,,,,,,,,,,,,,,,,,,,,,257.265,258.476,a,1,0.533,,[],[],[],[],[],[],[],0.533,1,258.476,258.976,,,,,,960,MAS,CON,150,tono,,l,258.976,258.977,0.016927083,-0.4375,0,0,0,,0,95,95,59,1,,,,
,,,,,,eeac1da0343c561b2d10b8fa,66a626ef09d4e21e1a8894ec,673768162bd316f69f3696a6,2024-11-15_12h27.06.171,Tarea de género gramatical,2024.2.2,Win32,60.0240096,,,,,,,,,,,,,,,,,,,,,,,,258.98,260.042,a,1,0.39,,[],[],[],[],[],[],[],0.39,1,260.043,260.543,,,,,,1301,MAS,AGR,150,abrigo,el,l,260.546,260.548,0.016927083,-0.4375,0,0,0,,0,96,96,400,1,,,,
,,,,,,eeac1da0343c561b2d10b8fa,66a626ef09d4e21e1a8894ec,673768162bd316f69f3696a6,2024-11-15_12h27.06.171,Tarea de género gramatical,2024.2.2,Win32,60.0240096,,,,,,,,,,,,,,,,,,,,,,,,260.55,261.676,l,1,0.456,,[],[],[],[],[],[],[],0.456,1,261.676,262.176,,,,,,1070,FEM,AGR,150,carta,la,a,262.176,262.176,0.016927083,-0.4375,0,0,0,,0,97,97,169,1,,,,
,,,,,,eeac1da0343c561b2d10b8fa,66a626ef09d4e21e1a8894ec,673768162bd316f69f3696a6,2024-11-15_12h27.06.171,Tarea de género gramatical,2024.2.2,Win32,60.0240096,,,,,,,,,,,,,,,,,,,,,,,,262.178,263.276,a,1,0.417,,[],[],[],[],[],[],[],0.417,1,263.276,263.776,,,,,,965,MAS,AGR,150,rayo,el,l,263.776,263.777,0.016927083,-0.4375,0,0,0,,0,98,98,64,1,,,,
,,,,,,eeac1da0343c561b2d10b8fa,66a626ef09d4e21e1a8894ec,673768162bd316f69f3696a6,2024-11-15_12h27.06.171,Tarea de género gramatical,2024.2.2,Win32,60.0240096,,,,,,,,,,,,,,,,,,,,,,,,263.779,264.81,l,1,0.358,,[],[],[],[],[],[],[],0.358,1,264.811,265.309,,,,,,997,FEM,DIS,150,capa,el,a,265.309,265.309,0.016927083,-0.4375,0,0,0,,0,99,99,96,1,,,,
,,,,,,eeac1da0343c561b2d10b8fa,66a626ef09d4e21e1a8894ec,673768162bd316f69f3696a6,2024-11-15_12h27.06.171,Tarea de género gramatical,2024.2.2,Win32,60.0240096,,,,,,,,,,,,,,,,,,,,,,,,265.312,266.66,l,1,0.667,,[],[],[],[],[],[],[],0.667,1,266.66,267.16,,,,,,919,FEM,DIS,150,niña,el,a,267.16,267.16,0.016927083,-0.4375,0,0,0,,0,100,100,18,1,,,,
,,,,,,eeac1da0343c561b2d10b8fa,66a626ef09d4e21e1a8894ec,673768162bd316f69f3696a6,2024-11-15_12h27.06.171,Tarea de género gramatical,2024.2.2,Win32,60.0240096,,,,,,,,,,,,,,,,,,,,,,,,267.162,268.226,l,1,0.391,,[],[],[],[],[],[],[],0.391,1,268.227,268.726,,,,,,1029,FEM,CON,150,rana,,a,268.727,268.73,0.016927083,-0.4375,0,0,0,,0,101,101,128,1,,,,
,,,,,,eeac1da0343c561b2d10b8fa,66a626ef09d4e21e1a8894ec,673768162bd316f69f3696a6,2024-11-15_12h27.06.171,Tarea de género gramatical,2024.2.2,Win32,60.0240096,,,,,,,,,,,,,,,,,,,,,,,,268.73,269.81,l,1,0.4,,[],[],[],[],[],[],[],0.4,1,269.811,270.31,,,,,,1311,FEM,CON,150,actriz,,a,270.31,270.31,0.016927083,-0.4375,0,0,0,,0,102,102,410,1,,,,
,,,,,,eeac1da0343c561b2d10b8fa,66a626ef09d4e21e1a8894ec,673768162bd316f69f3696a6,2024-11-15_12h27.06.171,Tarea de género gramatical,2024.2.2,Win32,60.0240096,,,,,,,,,,,,,,,,,,,,,,,,270.312,271.326,l,1,0.335,,[],[],[],[],[],[],[],0.335,1,271.326,271.827,,,,,,1239,FEM,CON,150,salida,,a,271.827,271.827,0.016927083,-0.4375,0,0,0,,0,103,103,338,1,,,,
,,,,,,eeac1da0343c561b2d10b8fa,66a626ef09d4e21e1a8894ec,673768162bd316f69f3696a6,2024-11-15_12h27.06.171,Tarea de género gramatical,2024.2.2,Win32,60.0240096,,,,,,,,,,,,,,,,,,,,,,,,271.829,272.876,l,1,0.366,,[],[],[],[],[],[],[],0.366,1,272.877,273.376,,,,,,1202,FEM,AGR,150,cabeza,la,a,273.376,273.377,0.016927083,-0.4375,0,0,0,,0,104,104,301,1,,,,
,,,,,,eeac1da0343c561b2d10b8fa,66a626ef09d4e21e1a8894ec,673768162bd316f69f3696a6,2024-11-15_12h27.06.171,Tarea de género gramatical,2024.2.2,Win32,60.0240096,,,,,,,,,,,,,,,,,,,,,,,,273.379,274.659,a,1,0.606,,[],[],[],[],[],[],[],0.606,1,274.661,275.16,,,,,,1163,MAS,AGR,150,carro,el,l,275.161,275.164,0.016927083,-0.4375,0,0,0,,0,105,105,262,1,,,,
,,,,,,eeac1da0343c561b2d10b8fa,66a626ef09d4e21e1a8894ec,673768162bd316f69f3696a6,2024-11-15_12h27.06.171,Tarea de género gramatical,2024.2.2,Win32,60.0240096,,,,,,,,,,,,,,,,,,,,,,,,275.164,276.327,l,1,0.486,,[],[],[],[],[],[],[],0.486,1,276.327,276.827,,,,,,943,FEM,DIS,150,nena,el,a,276.827,276.827,0.016927083,-0.4375,0,0,0,,0,106,106,42,1,,,,
,,,,,,eeac1da0343c561b2d10b8fa,66a626ef09d4e21e1a8894ec,673768162bd316f69f3696a6,2024-11-15_12h27.06.171,Tarea de género gramatical,2024.2.2,Win32,60.0240096,,,,,,,,,,,,,,,,,,,,,,,,276.829,277.844,l,1,0.333,,[],[],[],[],[],[],[],0.333,1,277.846,278.343,,,,,,1203,FEM,CON,150,maldad,,a,278.343,278.345,0.016927083,-0.4375,0,0,0,,0,107,107,302,1,,,,
,,,,,,eeac1da0343c561b2d10b8fa,66a626ef09d4e21e1a8894ec,673768162bd316f69f3696a6,2024-11-15_12h27.06.171,Tarea de género gramatical,2024.2.2,Win32,60.0240096,,,,,,,,,,,,,,,,,,,,,,,,278.346,279.427,a,1,0.408,,[],[],[],[],[],[],[],0.408,1,279.427,279.927,,,,,,1122,MAS,CON,150,valor,,l,279.927,279.927,0.016927083,-0.4375,0,0,0,,0,108,108,221,1,,,,
,,,,,,eeac1da0343c561b2d10b8fa,66a626ef09d4e21e1a8894ec,673768162bd316f69f3696a6,2024-11-15_12h27.06.171,Tarea de género gramatical,2024.2.2,Win32,60.0240096,,,,,,,,,,,,,,,,,,,,,,,,279.93,280.926,l,1,0.318,,[],[],[],[],[],[],[],0.318,1,280.926,281.426,,,,,,1244,FEM,AGR,150,pareja,la,a,281.426,281.427,0.016927083,-0.4375,0,0,0,,0,109,109,343,1,,,,
,,,,,,eeac1da0343c561b2d10b8fa,66a626ef09d4e21e1a8894ec,673768162bd316f69f3696a6,2024-11-15_12h27.06.171,Tarea de género gramatical,2024.2.2,Win32,60.0240096,,,,,,,,,,,,,,,,,,,,,,,,281.43,282.36,l,1,0.26,,[],[],[],[],[],[],[],0.26,1,282.36,282.86,,,,,,1256,FEM,AGR,150,piedra,la,a,282.862,282.864,0.016927083,-0.4375,0,0,0,,0,110,110,355,1,,,,
,,,,,,eeac1da0343c561b2d10b8fa,66a626ef09d4e21e1a8894ec,673768162bd316f69f3696a6,2024-11-15_12h27.06.171,Tarea de género gramatical,2024.2.2,Win32,60.0240096,,,,,,,,,,,,,,,,,,,,,,,,282.864,283.96,a,1,0.418,,[],[],[],[],[],[],[],0.418,1,283.96,284.46,,,,,,1049,MAS,AGR,150,nudo,el,l,284.46,284.46,0.016927083,-0.4375,0,0,0,,0,111,111,148,1,,,,
,,,,,,eeac1da0343c561b2d10b8fa,66a626ef09d4e21e1a8894ec,673768162bd316f69f3696a6,2024-11-15_12h27.06.171,Tarea de género gramatical,2024.2.2,Win32,60.0240096,,,,,,,,,,,,,,,,,,,,,,,,284.462,285.51,l,1,0.385,,[],[],[],[],[],[],[],0.385,1,285.51,286.01,,,,,,901,FEM,DIS,150,casa,el,a,286.01,286.01,0.016927083,-0.4375,0,0,0,,0,112,112,0,1,,,,
,,,,,,eeac1da0343c561b2d10b8fa,66a626ef09d4e21e1a8894ec,673768162bd316f69f3696a6,2024-11-15_12h27.06.171,Tarea de género gramatical,2024.2.2,Win32,60.0240096,,,,,,,,,,,,,,,,,,,,,,,,286.013,287.21,a,1,0.523,,[],[],[],[],[],[],[],0.523,1,287.21,287.71,,,,,,1044,MAS,CON,150,amor,,l,287.71,287.711,0.016927083,-0.4375,0,0,0,,0,113,113,143,1,,,,
,,,,,,eeac1da0343c561b2d10b8fa,66a626ef09d4e21e1a8894ec,673768162bd316f69f3696a6,2024-11-15_12h27.06.171,Tarea de género gramatical,2024.2.2,Win32,60.0240096,,,,,,,,,,,,,,,,,,,,,,,,287.712,288.745,l,0,0.36,,[],[],[],[],[],[],[],0.36,0,288.747,289.244,,,,,,1138,MAS,DIS,150,norte,la,l,289.246,289.248,0.016927083,-0.4375,0,0,0,,0,114,114,237,1,,,,
,,,,,,eeac1da0343c561b2d10b8fa,66a626ef09d4e21e1a8894ec,673768162bd316f69f3696a6,2024-11-15_12h27.06.171,Tarea de género gramatical,2024.2.2,Win32,60.0240096,,,,,,,,,,,,,,,,,,,,,,,,289.248,290.411,a,1,0.49,,[],[],[],[],[],[],[],0.49,1,290.416,290.911,,,,,,1307,MAS,AGR,150,jurado,el,l,290.911,290.912,0.016927083,-0.4375,0,0,0,,0,115,115,406,1,,,,
,,,,,,eeac1da0343c561b2d10b8fa,66a626ef09d4e21e1a8894ec,673768162bd316f69f3696a6,2024-11-15_12h27.06.171,Tarea de género gramatical,2024.2.2,Win32,60.0240096,,,,,,,,,,,,,,,,,,,,,,,,290.915,291.91,l,1,0.319,,[],[],[],[],[],[],[],0.319,1,291.91,292.41,,,,,,1335,FEM,CON,150,niebla,,a,292.41,292.411,0.016927083,-0.4375,0,0,0,,0,116,116,434,1,,,,
,,,,,,eeac1da0343c561b2d10b8fa,66a626ef09d4e21e1a8894ec,673768162bd316f69f3696a6,2024-11-15_12h27.06.171,Tarea de género gramatical,2024.2.2,Win32,60.0240096,,,,,,,,,,,,,,,,,,,,,,,,292.413,293.446,l,1,0.35,,[],[],[],[],[],[],[],0.35,1,293.446,293.945,,,,,,1154,FEM,AGR,150,caída,la,a,293.945,293.945,0.016927083,-0.4375,0,0,0,,0,117,117,253,1,,,,
,,,,,,eeac1da0343c561b2d10b8fa,66a626ef09d4e21e1a8894ec,673768162bd316f69f3696a6,2024-11-15_12h27.06.171,Tarea de género gramatical,2024.2.2,Win32,60.0240096,,,,,,,,,,,,,,,,,,,,,,,,293.948,295.21,l,1,0.583,,[],[],[],[],[],[],[],0.583,1,295.211,295.711,,,,,,1142,FEM,AGR,150,pizza,la,a,295.711,295.711,0.016927083,-0.4375,0,0,0,,0,118,118,241,1,,,,
,,,,,,eeac1da0343c561b2d10b8fa,66a626ef09d4e21e1a8894ec,673768162bd316f69f3696a6,2024-11-15_12h27.06.171,Tarea de género gramatical,2024.2.2,Win32,60.0240096,,,,,,,,,,,,,,,,,,,,,,,,295.713,296.745,l,1,0.352,,[],[],[],[],[],[],[],0.352,1,296.745,297.245,,,,,,1173,FEM,CON,150,tarta,,a,297.247,297.248,0.016927083,-0.4375,0,0,0,,0,119,119,272,1,,,,
,,,,,,eeac1da0343c561b2d10b8fa,66a626ef09d4e21e1a8894ec,673768162bd316f69f3696a6,2024-11-15_12h27.06.171,Tarea de género gramatical,2024.2.2,Win32,60.0240096,,,,,,,,,,,,,,,,,,,,,,,,297.249,298.294,a,1,0.369,,[],[],[],[],[],[],[],0.369,1,298.295,298.795,,,,,,1080,MAS,CON,150,fuego,,l,298.795,298.795,0.016927083,-0.4375,0,0,0,,0,120,120,179,1,,,,
,,,,,,eeac1da0343c561b2d10b8fa,66a626ef09d4e21e1a8894ec,673768162bd316f69f3696a6,2024-11-15_12h27.06.171,Tarea de género gramatical,2024.2.2,Win32,60.0240096,,,,,,,,,,,,,,,,,,,,,,,,298.797,299.827,l,1,0.356,,[],[],[],[],[],[],[],0.356,1,299.827,300.327,,,,,,973,FEM,DIS,150,roca,el,a,300.327,300.328,0.016927083,-0.4375,0,0,0,,0,121,121,72,1,,,,
,,,,,,eeac1da0343c561b2d10b8fa,66a626ef09d4e21e1a8894ec,673768162bd316f69f3696a6,2024-11-15_12h27.06.171,Tarea de género gramatical,2024.2.2,Win32,60.0240096,,,,,,,,,,,,,,,,,,,,,,,,300.329,301.327,l,1,0.317,,[],[],[],[],[],[],[],0.317,1,301.327,301.827,,,,,,1322,FEM,AGR,150,rutina,la,a,301.828,301.828,0.016927083,-0.4375,0,0,0,,0,122,122,421,1,,,,
,,,,,,eeac1da0343c561b2d10b8fa,66a626ef09d4e21e1a8894ec,673768162bd316f69f3696a6,2024-11-15_12h27.06.171,Tarea de género gramatical,2024.2.2,Win32,60.0240096,,,,,,,,,,,,,,,,,,,,,,,,301.829,302.86,a,1,0.351,,[],[],[],[],[],[],[],0.351,1,302.861,303.36,,,,,,1139,MAS,AGR,150,reloj,el,l,303.362,303.365,0.016927083,-0.4375,0,0,0,,0,123,123,238,1,,,,
,,,,,,eeac1da0343c561b2d10b8fa,66a626ef09d4e21e1a8894ec,673768162bd316f69f3696a6,2024-11-15_12h27.06.171,Tarea de género gramatical,2024.2.2,Win32,60.0240096,,,,,,,,,,,,,,,,,,,,,,,,303.366,304.444,l,1,0.4,,[],[],[],[],[],[],[],0.4,1,304.444,304.945,,,,,,1023,FEM,CON,150,tela,,a,304.945,304.946,0.016927083,-0.4375,0,0,0,,0,124,124,122,1,,,,
,,,,,,eeac1da0343c561b2d10b8fa,66a626ef09d4e21e1a8894ec,673768162bd316f69f3696a6,2024-11-15_12h27.06.171,Tarea de género gramatical,2024.2.2,Win32,60.0240096,,,,,,,,,,,,,,,,,,,,,,,,304.948,306.11,l,1,0.486,,[],[],[],[],[],[],[],0.486,1,306.11,306.611,,,,,,1255,FEM,DIS,150,mirada,el,a,306.611,306.611,0.016927083,-0.4375,0,0,0,,0,125,125,354,1,,,,
,,,,,,eeac1da0343c561b2d10b8fa,66a626ef09d4e21e1a8894ec,673768162bd316f69f3696a6,2024-11-15_12h27.06.171,Tarea de género gramatical,2024.2.2,Win32,60.0240096,,,,,,,,,,,,,,,,,,,,,,,,306.613,307.628,l,1,0.338,,[],[],[],[],[],[],[],0.338,1,307.628,308.127,,,,,,1250,FEM,AGR,150,imagen,la,a,308.128,308.128,0.016927083,-0.4375,0,0,0,,0,126,126,349,1,,,,
,,,,,,eeac1da0343c561b2d10b8fa,66a626ef09d4e21e1a8894ec,673768162bd316f69f3696a6,2024-11-15_12h27.06.171,Tarea de género gramatical,2024.2.2,Win32,60.0240096,,,,,,,,,,,,,,,,,,,,,,,,308.129,309.145,l,1,0.334,,[],[],[],[],[],[],[],0.334,1,309.146,309.644,,,,,,1147,FEM,DIS,150,frase,el,a,309.644,309.644,0.016927083,-0.4375,0,0,0,,0,127,127,246,1,,,,
,,,,,,eeac1da0343c561b2d10b8fa,66a626ef09d4e21e1a8894ec,673768162bd316f69f3696a6,2024-11-15_12h27.06.171,Tarea de género gramatical,2024.2.2,Win32,60.0240096,,,,,,,,,,,,,,,,,,,,,,,,309.647,310.71,l,1,0.403,,[],[],[],[],[],[],[],0.403,1,310.71,311.21,,,,,,909,FEM,CON,150,mamá,,a,311.212,311.215,0.016927083,-0.4375,0,0,0,,0,128,128,8,1,,,,
,,,,,,eeac1da0343c561b2d10b8fa,66a626ef09d4e21e1a8894ec,673768162bd316f69f3696a6,2024-11-15_12h27.06.171,Tarea de género gramatical,2024.2.2,Win32,60.0240096,,,,,,,,,,,,,,,,,,,,,,,,311.216,312.228,l,1,0.334,,[],[],[],[],[],[],[],0.334,1,312.228,312.728,,,,,,1297,FEM,DIS,150,cuerda,el,a,312.728,312.728,0.016927083,-0.4375,0,0,0,,0,129,129,396,1,,,,
,,,,,,eeac1da0343c561b2d10b8fa,66a626ef09d4e21e1a8894ec,673768162bd316f69f3696a6,2024-11-15_12h27.06.171,Tarea de género gramatical,2024.2.2,Win32,60.0240096,,,,,,,,,,,,,,,,,,,,,,,,312.73,313.728,l,1,0.326,,[],[],[],[],[],[],[],0.326,1,313.728,314.227,,,,,,968,FEM,AGR,150,pata,la,a,314.227,314.228,0.016927083,-0.4375,0,0,0,,0,130,130,67,1,,,,
,,,,,,eeac1da0343c561b2d10b8fa,66a626ef09d4e21e1a8894ec,673768162bd316f69f3696a6,2024-11-15_12h27.06.171,Tarea de género gramatical,2024.2.2,Win32,60.0240096,,,,,,,,,,,,,,,,,,,,,,,,314.23,315.478,a,1,0.57,,[],[],[],[],[],[],[],0.57,1,315.478,315.978,,,,,,1260,MAS,CON,150,puente,,l,315.978,315.978,0.016927083,-0.4375,0,0,0,,0,131,131,359,1,,,,
,,,,,,eeac1da0343c561b2d10b8fa,66a626ef09d4e21e1a8894ec,673768162bd316f69f3696a6,2024-11-15_12h27.06.171,Tarea de género gramatical,2024.2.2,Win32,60.0240096,,,,,,,,,,,,,,,,,,,,,,,,315.98,316.961,l,1,0.309,,[],[],[],[],[],[],[],0.309,1,316.961,317.461,,,,,,1291,FEM,DIS,150,altura,el,a,317.463,317.465,0.016927083,-0.4375,0,0,0,,0,132,132,390,1,,,,
,,,,,,eeac1da0343c561b2d10b8fa,66a626ef09d4e21e1a8894ec,673768162bd316f69f3696a6,2024-11-15_12h27.06.171,Tarea de género gramatical,2024.2.2,Win32,60.0240096,,,,,,,,,,,,,,,,,,,,,,,,317.465,318.578,l,0,0.44,,[],[],[],[],[],[],[],0.44,0,318.579,319.078,,,,,,1290,MAS,CON,150,rostro,,l,319.078,319.079,0.016927083,-0.4375,0,0,0,,0,133,133,389,1,,,,
,,,,,,eeac1da0343c561b2d10b8fa,66a626ef09d4e21e1a8894ec,673768162bd316f69f3696a6,2024-11-15_12h27.06.171,Tarea de género gramatical,2024.2.2,Win32,60.0240096,,,,,,,,,,,,,,,,,,,,,,,,319.08,320.244,a,1,0.484,,[],[],[],[],[],[],[],0.484,1,320.246,320.745,,,,,,1278,MAS,CON,150,pastel,,l,320.745,320.745,0.016927083,-0.4375,0,0,0,,0,134,134,377,1,,,,
,,,,,,eeac1da0343c561b2d10b8fa,66a626ef09d4e21e1a8894ec,673768162bd316f69f3696a6,2024-11-15_12h27.06.171,Tarea de género gramatical,2024.2.2,Win32,60.0240096,,,,,,,,,,,,,,,,,,,,,,,,320.747,321.778,l,1,0.357,,[],[],[],[],[],[],[],0.357,1,321.778,322.277,,,,,,1327,FEM,DIS,150,agenda,el,a,322.277,322.278,0.016927083,-0.4375,0,0,0,,0,135,135,426,1,,,,
,,,,,,eeac1da0343c561b2d10b8fa,66a626ef09d4e21e1a8894ec,673768162bd316f69f3696a6,2024-11-15_12h27.06.171,Tarea de género gramatical,2024.2.2,Win32,60.0240096,,,,,,,,,,,,,,,,,,,,,,,,322.28,323.495,a,1,0.534,,[],[],[],[],[],[],[],0.534,1,323.495,323.997,,,,,,1246,MAS,DIS,150,juicio,la,l,323.998,323.998,0.016927083,-0.4375,0,0,0,,0,136,136,345,1,,,,
,,,,,,eeac1da0343c561b2d10b8fa,66a626ef09d4e21e1a8894ec,673768162bd316f69f3696a6,2024-11-15_12h27.06.171,Tarea de género gramatical,2024.2.2,Win32,60.0240096,,,,,,,,,,,,,,,,,,,,,,,,324.002,324.978,a,1,0.3,,[],[],[],[],[],[],[],0.3,1,324.98,325.477,,,,,,1248,MAS,CON,150,anillo,,l,325.48,325.484,0.016927083,-0.4375,0,0,0,,0,137,137,347,1,,,,
,,,,,,eeac1da0343c561b2d10b8fa,66a626ef09d4e21e1a8894ec,673768162bd316f69f3696a6,2024-11-15_12h27.06.171,Tarea de género gramatical,2024.2.2,Win32,60.0240096,,,,,,,,,,,,,,,,,,,,,,,,325.484,326.478,l,1,0.317,,[],[],[],[],[],[],[],0.317,1,326.478,326.978,,,,,,963,FEM,CON,150,fila,,a,326.978,326.978,0.016927083,-0.4375,0,0,0,,0,138,138,62,1,,,,
,,,,,,eeac1da0343c561b2d10b8fa,66a626ef09d4e21e1a8894ec,673768162bd316f69f3696a6,2024-11-15_12h27.06.171,Tarea de género gramatical,2024.2.2,Win32,60.0240096,,,,,,,,,,,,,,,,,,,,,,,,326.981,327.945,a,1,0.284,,[],[],[],[],[],[],[],0.284,1,327.946,328.444,,,,,,1331,MAS,AGR,150,veneno,el,l,328.444,328.444,0.016927083,-0.4375,0,0,0,,0,139,139,430,1,,,,
,,,,,,eeac1da0343c561b2d10b8fa,66a626ef09d4e21e1a8894ec,673768162bd316f69f3696a6,2024-11-15_12h27.06.171,Tarea de género gramatical,2024.2.2,Win32,60.0240096,,,,,,,,,,,,,,,,,,,,,,,,328.447,329.528,a,1,0.403,,[],[],[],[],[],[],[],0.403,1,329.528,330.028,,,,,,996,MAS,CON,150,pato,,l,330.028,330.028,0.016927083,-0.4375,0,0,0,,0,140,140,95,1,,,,
,,,,,,eeac1da0343c561b2d10b8fa,66a626ef09d4e21e1a8894ec,673768162bd316f69f3696a6,2024-11-15_12h27.06.171,Tarea de género gramatical,2024.2.2,Win32,60.0240096,,,,,,,,,,,,,,,,,,,,,,,,330.03,331.095,l,1,0.387,,[],[],[],[],[],[],[],0.387,1,331.095,331.595,,,,,,1257,FEM,CON,150,lengua,,a,331.596,331.598,0.016927083,-0.4375,0,0,0,,0,141,141,356,1,,,,
,,,,,,eeac1da0343c561b2d10b8fa,66a626ef09d4e21e1a8894ec,673768162bd316f69f3696a6,2024-11-15_12h27.06.171,Tarea de género gramatical,2024.2.2,Win32,60.0240096,,,,,,,,,,,,,,,,,,,,,,,,331.599,332.645,a,1,0.372,,[],[],[],[],[],[],[],0.372,1,332.645,333.145,,,,,,954,MAS,CON,150,humo,,l,333.145,333.145,0.016927083,-0.4375,0,0,0,,0,142,142,53,1,,,,
,,,,,,eeac1da0343c561b2d10b8fa,66a626ef09d4e21e1a8894ec,673768162bd316f69f3696a6,2024-11-15_12h27.06.171,Tarea de género gramatical,2024.2.2,Win32,60.0240096,,,,,,,,,,,,,,,,,,,,,,,,333.148,334.145,l,1,0.318,,[],[],[],[],[],[],[],0.318,1,334.145,334.645,,,,,,1197,FEM,CON,150,manta,,a,334.645,334.645,0.016927083,-0.4375,0,0,0,,0,143,143,296,1,,,,
,,,,,,eeac1da0343c561b2d10b8fa,66a626ef09d4e21e1a8894ec,673768162bd316f69f3696a6,2024-11-15_12h27.06.171,Tarea de género gramatical,2024.2.2,Win32,60.0240096,,,,,,,,,,,,,,,,,,,,,,,,334.647,335.711,a,1,0.384,,[],[],[],[],[],[],[],0.384,1,335.712,336.212,,,,,,1338,MAS,CON,150,tanque,,l,336.212,336.212,0.016927083,-0.4375,0,0,0,,0,144,144,437,1,,,,
,,,,,,eeac1da0343c561b2d10b8fa,66a626ef09d4e21e1a8894ec,673768162bd316f69f3696a6,2024-11-15_12h27.06.171,Tarea de género gramatical,2024.2.2,Win32,60.0240096,,,,,,,,,,,,,,,,,,,,,,,,336.215,337.212,l,1,0.325,,[],[],[],[],[],[],[],0.325,1,337.213,337.711,,,,,,1165,FEM,DIS,150,rueda,el,a,337.711,337.712,0.016927083,-0.4375,0,0,0,,0,145,145,264,1,,,,
,,,,,,eeac1da0343c561b2d10b8fa,66a626ef09d4e21e1a8894ec,673768162bd316f69f3696a6,2024-11-15_12h27.06.171,Tarea de género gramatical,2024.2.2,Win32,60.0240096,,,,,,,,,,,,,,,,,,,,,,,,337.714,338.745,a,1,0.352,,[],[],[],[],[],[],[],0.352,1,338.745,339.245,,,,,,1026,MAS,CON,150,lazo,,l,339.247,339.248,0.016927083,-0.4375,0,0,0,,0,146,146,125,1,,,,
,,,,,,eeac1da0343c561b2d10b8fa,66a626ef09d4e21e1a8894ec,673768162bd316f69f3696a6,2024-11-15_12h27.06.171,Tarea de género gramatical,2024.2.2,Win32,60.0240096,,,,,,,,,,,,,,,,,,,,,,,,339.249,340.295,a,1,0.37,,[],[],[],[],[],[],[],0.37,1,340.295,340.795,,,,,,1180,MAS,DIS,150,salón,la,l,340.795,340.795,0.016927083,-0.4375,0,0,0,,0,147,147,279,1,,,,
,,,,,,eeac1da0343c561b2d10b8fa,66a626ef09d4e21e1a8894ec,673768162bd316f69f3696a6,2024-11-15_12h27.06.171,Tarea de género gramatical,2024.2.2,Win32,60.0240096,,,,,,,,,,,,,,,,,,,,,,,,340.796,341.912,l,1,0.443,,[],[],[],[],[],[],[],0.443,1,341.913,342.412,,,,,,1237,FEM,DIS,150,escena,el,a,342.412,342.412,0.016927083,-0.4375,0,0,0,,0,148,148,336,1,,,,
,,,,,,eeac1da0343c561b2d10b8fa,66a626ef09d4e21e1a8894ec,673768162bd316f69f3696a6,2024-11-15_12h27.06.171,Tarea de género gramatical,2024.2.2,Win32,60.0240096,,,,,,,,,,,,,,,,,,,,,,,,342.415,343.645,a,1,0.55,,[],[],[],[],[],[],[],0.55,1,343.646,344.145,,,,,,1060,MAS,DIS,150,señor,la,l,344.145,344.145,0.016927083,-0.4375,0,0,0,,0,149,149,159,1,,,,
,,,,,,eeac1da0343c561b2d10b8fa,66a626ef09d4e21e1a8894ec,673768162bd316f69f3696a6,2024-11-15_12h27.06.171,Tarea de género gramatical,2024.2.2,Win32,60.0240096,,,,,,,,,,,,,,,,,,,,,,,,344.147,345.345,a,1,0.519,,[],[],[],[],[],[],[],0.519,1,345.346,345.845,,,,,,1151,MAS,AGR,150,dueño,el,l,345.848,418.432,0.016927083,-0.4375,0,0,0,space,0,150,150,250,1,72.565,,,
,,,,,,eeac1da0343c561b2d10b8fa,66a626ef09d4e21e1a8894ec,673768162bd316f69f3696a6,2024-11-15_12h27.06.171,Tarea de género gramatical,2024.2.2,Win32,60.0240096,,,,,,,,,,,,,,,,,,,,,,,,418.438,419.781,l,1,0.666,,[],[],[],[],[],[],[],0.666,1,419.782,420.281,,,,,,931,FEM,DIS,150,edad,el,a,420.281,420.282,0.016927083,-0.4375,0,0,0,,0,151,151,30,1,,,,
,,,,,,eeac1da0343c561b2d10b8fa,66a626ef09d4e21e1a8894ec,673768162bd316f69f3696a6,2024-11-15_12h27.06.171,Tarea de género gramatical,2024.2.2,Win32,60.0240096,,,,,,,,,,,,,,,,,,,,,,,,420.284,421.714,a,1,0.751,,[],[],[],[],[],[],[],0.751,1,421.715,422.215,,,,,,988,MAS,DIS,150,pavo,la,l,422.215,422.215,0.016927083,-0.4375,0,0,0,,0,152,152,87,1,,,,
,,,,,,eeac1da0343c561b2d10b8fa,66a626ef09d4e21e1a8894ec,673768162bd316f69f3696a6,2024-11-15_12h27.06.171,Tarea de género gramatical,2024.2.2,Win32,60.0240096,,,,,,,,,,,,,,,,,,,,,,,,422.217,423.248,a,0,0.361,,[],[],[],[],[],[],[],0.361,0,423.251,423.747,,,,,,967,FEM,DIS,150,miel,el,a,423.747,423.747,0.016927083,-0.4375,0,0,0,,0,153,153,66,1,,,,
,,,,,,eeac1da0343c561b2d10b8fa,66a626ef09d4e21e1a8894ec,673768162bd316f69f3696a6,2024-11-15_12h27.06.171,Tarea de género gramatical,2024.2.2,Win32,60.0240096,,,,,,,,,,,,,,,,,,,,,,,,423.75,424.799,l,1,0.367,,[],[],[],[],[],[],[],0.367,1,424.803,425.298,,,,,,1214,FEM,AGR,150,señora,la,a,425.298,425.3,0.016927083,-0.4375,0,0,0,,0,154,154,313,1,,,,
,,,,,,eeac1da0343c561b2d10b8fa,66a626ef09d4e21e1a8894ec,673768162bd316f69f3696a6,2024-11-15_12h27.06.171,Tarea de género gramatical,2024.2.2,Win32,60.0240096,,,,,,,,,,,,,,,,,,,,,,,,425.303,426.348,l,1,0.367,,[],[],[],[],[],[],[],0.367,1,426.348,426.848,,,,,,1347,FEM,CON,150,lógica,,a,426.85,426.853,0.016927083,-0.4375,0,0,0,,0,155,155,446,1,,,,
,,,,,,eeac1da0343c561b2d10b8fa,66a626ef09d4e21e1a8894ec,673768162bd316f69f3696a6,2024-11-15_12h27.06.171,Tarea de género gramatical,2024.2.2,Win32,60.0240096,,,,,,,,,,,,,,,,,,,,,,,,426.854,427.93,a,1,0.407,,[],[],[],[],[],[],[],0.407,1,427.93,428.431,,,,,,1192,MAS,DIS,150,piano,la,l,428.431,428.432,0.016927083,-0.4375,0,0,0,,0,156,156,291,1,,,,
,,,,,,eeac1da0343c561b2d10b8fa,66a626ef09d4e21e1a8894ec,673768162bd316f69f3696a6,2024-11-15_12h27.06.171,Tarea de género gramatical,2024.2.2,Win32,60.0240096,,,,,,,,,,,,,,,,,,,,,,,,428.434,429.565,l,1,0.455,,[],[],[],[],[],[],[],0.455,1,429.566,430.064,,,,,,1155,FEM,CON,150,tribu,,a,430.064,430.064,0.016927083,-0.4375,0,0,0,,0,157,157,254,1,,,,
,,,,,,eeac1da0343c561b2d10b8fa,66a626ef09d4e21e1a8894ec,673768162bd316f69f3696a6,2024-11-15_12h27.06.171,Tarea de género gramatical,2024.2.2,Win32,60.0240096,,,,,,,,,,,,,,,,,,,,,,,,430.067,431.115,a,1,0.368,,[],[],[],[],[],[],[],0.368,1,431.115,431.614,,,,,,1067,MAS,AGR,150,juego,el,l,431.614,431.614,0.016927083,-0.4375,0,0,0,,0,158,158,166,1,,,,
,,,,,,eeac1da0343c561b2d10b8fa,66a626ef09d4e21e1a8894ec,673768162bd316f69f3696a6,2024-11-15_12h27.06.171,Tarea de género gramatical,2024.2.2,Win32,60.0240096,,,,,,,,,,,,,,,,,,,,,,,,431.616,433.148,a,1,0.857,,[],[],[],[],[],[],[],0.857,1,433.149,433.648,,,,,,1074,MAS,CON,150,perro,,l,433.651,433.652,0.016927083,-0.4375,0,0,0,,0,159,159,173,1,,,,
,,,,,,eeac1da0343c561b2d10b8fa,66a626ef09d4e21e1a8894ec,673768162bd316f69f3696a6,2024-11-15_12h27.06.171,Tarea de género gramatical,2024.2.2,Win32,60.0240096,,,,,,,,,,,,,,,,,,,,,,,,433.652,434.731,a,1,0.401,,[],[],[],[],[],[],[],0.401,1,434.731,435.231,,,,,,1276,MAS,DIS,150,efecto,la,l,435.231,435.231,0.016927083,-0.4375,0,0,0,,0,160,160,375,1,,,,
,,,,,,eeac1da0343c561b2d10b8fa,66a626ef09d4e21e1a8894ec,673768162bd316f69f3696a6,2024-11-15_12h27.06.171,Tarea de género gramatical,2024.2.2,Win32,60.0240096,,,,,,,,,,,,,,,,,,,,,,,,435.235,436.547,l,1,0.64,,[],[],[],[],[],[],[],0.64,1,436.548,437.048,,,,,,1106,FEM,AGR,150,época,la,a,437.048,437.048,0.016927083,-0.4375,0,0,0,,0,161,161,205,1,,,,
,,,,,,eeac1da0343c561b2d10b8fa,66a626ef09d4e21e1a8894ec,673768162bd316f69f3696a6,2024-11-15_12h27.06.171,Tarea de género gramatical,2024.2.2,Win32,60.0240096,,,,,,,,,,,,,,,,,,,,,,,,437.05,438.13,l,1,0.4,,[],[],[],[],[],[],[],0.4,1,438.132,438.631,,,,,,907,FEM,DIS,150,hora,el,a,438.631,438.631,0.016927083,-0.4375,0,0,0,,0,162,162,6,1,,,,
,,,,,,eeac1da0343c561b2d10b8fa,66a626ef09d4e21e1a8894ec,673768162bd316f69f3696a6,2024-11-15_12h27.06.171,Tarea de género gramatical,2024.2.2,Win32,60.0240096,,,,,,,,,,,,,,,,,,,,,,,,438.633,439.647,l,1,0.344,,[],[],[],[],[],[],[],0.344,1,439.647,440.148,,,,,,1225,FEM,DIS,150,tierra,el,a,440.148,440.148,0.016927083,-0.4375,0,0,0,,0,163,163,324,1,,,,
,,,,,,eeac1da0343c561b2d10b8fa,66a626ef09d4e21e1a8894ec,673768162bd316f69f3696a6,2024-11-15_12h27.06.171,Tarea de género gramatical,2024.2.2,Win32,60.0240096,,,,,,,,,,,,,,,,,,,,,,,,440.149,441.231,a,1,0.402,,[],[],[],[],[],[],[],0.402,1,441.232,441.732,,,,,,978,MAS,CON,150,oído,,l,441.735,441.737,0.016927083,-0.4375,0,0,0,,0,164,164,77,1,,,,
,,,,,,eeac1da0343c561b2d10b8fa,66a626ef09d4e21e1a8894ec,673768162bd316f69f3696a6,2024-11-15_12h27.06.171,Tarea de género gramatical,2024.2.2,Win32,60.0240096,,,,,,,,,,,,,,,,,,,,,,,,441.738,442.848,a,1,0.434,,[],[],[],[],[],[],[],0.434,1,442.848,443.348,,,,,,1198,MAS,DIS,150,botón,la,l,443.348,443.348,0.016927083,-0.4375,0,0,0,,0,165,165,297,1,,,,
,,,,,,eeac1da0343c561b2d10b8fa,66a626ef09d4e21e1a8894ec,673768162bd316f69f3696a6,2024-11-15_12h27.06.171,Tarea de género gramatical,2024.2.2,Win32,60.0240096,,,,,,,,,,,,,,,,,,,,,,,,443.351,444.514,a,1,0.489,,[],[],[],[],[],[],[],0.489,1,444.514,445.015,,,,,,1038,MAS,CON,150,luto,,l,445.015,445.015,0.016927083,-0.4375,0,0,0,,0,166,166,137,1,,,,
,,,,,,eeac1da0343c561b2d10b8fa,66a626ef09d4e21e1a8894ec,673768162bd316f69f3696a6,2024-11-15_12h27.06.171,Tarea de género gramatical,2024.2.2,Win32,60.0240096,,,,,,,,,,,,,,,,,,,,,,,,445.017,446.098,a,1,0.4,,[],[],[],[],[],[],[],0.4,1,446.099,446.597,,,,,,905,MAS,AGR,150,tipo,el,l,446.597,446.598,0.016927083,-0.4375,0,0,0,,0,167,167,4,1,,,,
,,,,,,eeac1da0343c561b2d10b8fa,66a626ef09d4e21e1a8894ec,673768162bd316f69f3696a6,2024-11-15_12h27.06.171,Tarea de género gramatical,2024.2.2,Win32,60.0240096,,,,,,,,,,,,,,,,,,,,,,,,446.6,447.631,a,1,0.349,,[],[],[],[],[],[],[],0.349,1,447.632,448.132,,,,,,1205,MAS,AGR,150,hombre,el,l,448.134,448.135,0.016927083,-0.4375,0,0,0,,0,168,168,304,1,,,,
,,,,,,eeac1da0343c561b2d10b8fa,66a626ef09d4e21e1a8894ec,673768162bd316f69f3696a6,2024-11-15_12h27.06.171,Tarea de género gramatical,2024.2.2,Win32,60.0240096,,,,,,,,,,,,,,,,,,,,,,,,448.136,449.232,a,1,0.421,,[],[],[],[],[],[],[],0.421,1,449.232,449.731,,,,,,1133,MAS,AGR,150,golpe,el,l,449.731,449.731,0.016927083,-0.4375,0,0,0,,0,169,169,232,1,,,,
,,,,,,eeac1da0343c561b2d10b8fa,66a626ef09d4e21e1a8894ec,673768162bd316f69f3696a6,2024-11-15_12h27.06.171,Tarea de género gramatical,2024.2.2,Win32,60.0240096,,,,,,,,,,,,,,,,,,,,,,,,449.734,450.831,a,1,0.42,,[],[],[],[],[],[],[],0.42,1,450.832,451.331,,,,,,977,MAS,AGR,150,pico,el,l,451.331,451.331,0.016927083,-0.4375,0,0,0,,0,170,170,76,1,,,,
,,,,,,eeac1da0343c561b2d10b8fa,66a626ef09d4e21e1a8894ec,673768162bd316f69f3696a6,2024-11-15_12h27.06.171,Tarea de género gramatical,2024.2.2,Win32,60.0240096,,,,,,,,,,,,,,,,,,,,,,,,451.334,452.665,a,1,0.651,,[],[],[],[],[],[],[],0.651,1,452.665,453.165,,,,,,1162,MAS,DIS,150,video,la,l,453.165,453.165,0.016927083,-0.4375,0,0,0,,0,171,171,261,1,,,,
,,,,,,eeac1da0343c561b2d10b8fa,66a626ef09d4e21e1a8894ec,673768162bd316f69f3696a6,2024-11-15_12h27.06.171,Tarea de género gramatical,2024.2.2,Win32,60.0240096,,,,,,,,,,,,,,,,,,,,,,,,453.167,454.165,l,1,0.318,,[],[],[],[],[],[],[],0.318,1,454.165,454.665,,,,,,1107,FEM,CON,150,playa,,a,454.665,454.665,0.016927083,-0.4375,0,0,0,,0,172,172,206,1,,,,
,,,,,,eeac1da0343c561b2d10b8fa,66a626ef09d4e21e1a8894ec,673768162bd316f69f3696a6,2024-11-15_12h27.06.171,Tarea de género gramatical,2024.2.2,Win32,60.0240096,,,,,,,,,,,,,,,,,,,,,,,,454.667,455.715,l,1,0.373,,[],[],[],[],[],[],[],0.373,1,455.715,456.215,,,,,,1076,FEM,AGR,150,línea,la,a,456.215,456.218,0.016927083,-0.4375,0,0,0,,0,173,173,175,1,,,,
,,,,,,eeac1da0343c561b2d10b8fa,66a626ef09d4e21e1a8894ec,673768162bd316f69f3696a6,2024-11-15_12h27.06.171,Tarea de género gramatical,2024.2.2,Win32,60.0240096,,,,,,,,,,,,,,,,,,,,,,,,456.219,457.281,l,1,0.384,,[],[],[],[],[],[],[],0.384,1,457.281,457.781,,,,,,1213,FEM,DIS,150,ciudad,el,a,457.781,457.781,0.016927083,-0.4375,0,0,0,,0,174,174,312,1,,,,
,,,,,,eeac1da0343c561b2d10b8fa,66a626ef09d4e21e1a8894ec,673768162bd316f69f3696a6,2024-11-15_12h27.06.171,Tarea de género gramatical,2024.2.2,Win32,60.0240096,,,,,,,,,,,,,,,,,,,,,,,,457.784,458.849,a,1,0.394,,[],[],[],[],[],[],[],0.394,1,458.851,459.348,,,,,,1036,MAS,DIS,150,vago,la,l,459.349,459.35,0.016927083,-0.4375,0,0,0,,0,175,175,135,1,,,,
,,,,,,eeac1da0343c561b2d10b8fa,66a626ef09d4e21e1a8894ec,673768162bd316f69f3696a6,2024-11-15_12h27.06.171,Tarea de género gramatical,2024.2.2,Win32,60.0240096,,,,,,,,,,,,,,,,,,,,,,,,459.353,460.382,l,1,0.35,,[],[],[],[],[],[],[],0.35,1,460.382,460.882,,,,,,1125,FEM,CON,150,pieza,,a,460.882,460.882,0.016927083,-0.4375,0,0,0,,0,176,176,224,1,,,,
,,,,,,eeac1da0343c561b2d10b8fa,66a626ef09d4e21e1a8894ec,673768162bd316f69f3696a6,2024-11-15_12h27.06.171,Tarea de género gramatical,2024.2.2,Win32,60.0240096,,,,,,,,,,,,,,,,,,,,,,,,460.885,461.898,a,1,0.334,,[],[],[],[],[],[],[],0.334,1,461.898,462.399,,,,,,936,MAS,CON,150,dedo,,l,462.401,462.404,0.016927083,-0.4375,0,0,0,,0,177,177,35,1,,,,
,,,,,,eeac1da0343c561b2d10b8fa,66a626ef09d4e21e1a8894ec,673768162bd316f69f3696a6,2024-11-15_12h27.06.171,Tarea de género gramatical,2024.2.2,Win32,60.0240096,,,,,,,,,,,,,,,,,,,,,,,,462.405,463.398,l,0,0.319,,[],[],[],[],[],[],[],0.319,0,463.401,463.899,,,,,,912,MAS,CON,150,plan,,l,463.899,463.899,0.016927083,-0.4375,0,0,0,,0,178,178,11,1,,,,
,,,,,,eeac1da0343c561b2d10b8fa,66a626ef09d4e21e1a8894ec,673768162bd316f69f3696a6,2024-11-15_12h27.06.171,Tarea de género gramatical,2024.2.2,Win32,60.0240096,,,,,,,,,,,,,,,,,,,,,,,,463.902,465.148,a,1,0.573,,[],[],[],[],[],[],[],0.573,1,465.15,465.648,,,,,,1102,MAS,DIS,150,honor,la,l,465.648,465.648,0.016927083,-0.4375,0,0,0,,0,179,179,201,1,,,,
,,,,,,eeac1da0343c561b2d10b8fa,66a626ef09d4e21e1a8894ec,673768162bd316f69f3696a6,2024-11-15_12h27.06.171,Tarea de género gramatical,2024.2.2,Win32,60.0240096,,,,,,,,,,,,,,,,,,,,,,,,465.65,466.665,l,1,0.342,,[],[],[],[],[],[],[],0.342,1,466.665,467.165,,,,,,1033,FEM,DIS,150,joya,el,a,467.165,467.165,0.016927083,-0.4375,0,0,0,,0,180,180,132,1,,,,
,,,,,,eeac1da0343c561b2d10b8fa,66a626ef09d4e21e1a8894ec,673768162bd316f69f3696a6,2024-11-15_12h27.06.171,Tarea de género gramatical,2024.2.2,Win32,60.0240096,,,,,,,,,,,,,,,,,,,,,,,,467.168,468.198,a,1,0.352,,[],[],[],[],[],[],[],0.352,1,468.199,468.698,,,,,,1120,MAS,DIS,150,huevo,la,l,468.698,468.699,0.016927083,-0.4375,0,0,0,,0,181,181,219,1,,,,
,,,,,,eeac1da0343c561b2d10b8fa,66a626ef09d4e21e1a8894ec,673768162bd316f69f3696a6,2024-11-15_12h27.06.171,Tarea de género gramatical,2024.2.2,Win32,60.0240096,,,,,,,,,,,,,,,,,,,,,,,,468.702,469.783,a,1,0.401,,[],[],[],[],[],[],[],0.401,1,469.784,470.282,,,,,,953,MAS,AGR,150,vaso,el,l,470.285,470.287,0.016927083,-0.4375,0,0,0,,0,182,182,52,1,,,,
,,,,,,eeac1da0343c561b2d10b8fa,66a626ef09d4e21e1a8894ec,673768162bd316f69f3696a6,2024-11-15_12h27.06.171,Tarea de género gramatical,2024.2.2,Win32,60.0240096,,,,,,,,,,,,,,,,,,,,,,,,470.287,471.232,l,1,0.269,,[],[],[],[],[],[],[],0.269,1,471.233,471.732,,,,,,921,FEM,CON,150,boca,,a,471.732,471.732,0.016927083,-0.4375,0,0,0,,0,183,183,20,1,,,,
,,,,,,eeac1da0343c561b2d10b8fa,66a626ef09d4e21e1a8894ec,673768162bd316f69f3696a6,2024-11-15_12h27.06.171,Tarea de género gramatical,2024.2.2,Win32,60.0240096,,,,,,,,,,,,,,,,,,,,,,,,471.736,472.899,a,1,0.484,,[],[],[],[],[],[],[],0.484,1,472.899,473.398,,,,,,928,MAS,DIS,150,club,la,l,473.398,473.399,0.016927083,-0.4375,0,0,0,,0,184,184,27,1,,,,
,,,,,,eeac1da0343c561b2d10b8fa,66a626ef09d4e21e1a8894ec,673768162bd316f69f3696a6,2024-11-15_12h27.06.171,Tarea de género gramatical,2024.2.2,Win32,60.0240096,,,,,,,,,,,,,,,,,,,,,,,,473.401,474.549,a,1,0.466,,[],[],[],[],[],[],[],0.466,1,474.549,475.049,,,,,,1030,MAS,DIS,150,yate,la,l,475.049,475.049,0.016927083,-0.4375,0,0,0,,0,185,185,129,1,,,,
,,,,,,eeac1da0343c561b2d10b8fa,66a626ef09d4e21e1a8894ec,673768162bd316f69f3696a6,2024-11-15_12h27.06.171,Tarea de género gramatical,2024.2.2,Win32,60.0240096,,,,,,,,,,,,,,,,,,,,,,,,475.052,476.132,l,1,0.4,,[],[],[],[],[],[],[],0.4,1,476.133,476.632,,,,,,945,FEM,CON,150,isla,,a,476.633,476.636,0.016927083,-0.4375,0,0,0,,0,186,186,44,1,,,,
,,,,,,eeac1da0343c561b2d10b8fa,66a626ef09d4e21e1a8894ec,673768162bd316f69f3696a6,2024-11-15_12h27.06.171,Tarea de género gramatical,2024.2.2,Win32,60.0240096,,,,,,,,,,,,,,,,,,,,,,,,476.636,477.999,a,1,0.686,,[],[],[],[],[],[],[],0.686,1,477.999,478.499,,,,,,906,MAS,CON,150,lado,,l,478.499,478.499,0.016927083,-0.4375,0,0,0,,0,187,187,5,1,,,,
,,,,,,eeac1da0343c561b2d10b8fa,66a626ef09d4e21e1a8894ec,673768162bd316f69f3696a6,2024-11-15_12h27.06.171,Tarea de género gramatical,2024.2.2,Win32,60.0240096,,,,,,,,,,,,,,,,,,,,,,,,478.501,479.649,a,1,0.467,,[],[],[],[],[],[],[],0.467,1,479.65,480.149,,,,,,1216,MAS,DIS,150,cuerpo,la,l,480.149,480.149,0.016927083,-0.4375,0,0,0,,0,188,188,315,1,,,,
,,,,,,eeac1da0343c561b2d10b8fa,66a626ef09d4e21e1a8894ec,673768162bd316f69f3696a6,2024-11-15_12h27.06.171,Tarea de género gramatical,2024.2.2,Win32,60.0240096,,,,,,,,,,,,,,,,,,,,,,,,480.151,481.383,l,1,0.549,,[],[],[],[],[],[],[],0.549,1,481.383,481.882,,,,,,1303,FEM,DIS,150,paliza,el,a,481.882,481.883,0.016927083,-0.4375,0,0,0,,0,189,189,402,1,,,,
,,,,,,eeac1da0343c561b2d10b8fa,66a626ef09d4e21e1a8894ec,673768162bd316f69f3696a6,2024-11-15_12h27.06.171,Tarea de género gramatical,2024.2.2,Win32,60.0240096,,,,,,,,,,,,,,,,,,,,,,,,481.885,483.149,l,1,0.588,,[],[],[],[],[],[],[],0.588,1,483.15,483.649,,,,,,1328,FEM,AGR,150,jugada,la,a,483.649,483.649,0.016927083,-0.4375,0,0,0,,0,190,190,427,1,,,,
,,,,,,eeac1da0343c561b2d10b8fa,66a626ef09d4e21e1a8894ec,673768162bd316f69f3696a6,2024-11-15_12h27.06.171,Tarea de género gramatical,2024.2.2,Win32,60.0240096,,,,,,,,,,,,,,,,,,,,,,,,483.651,484.949,a,1,0.618,,[],[],[],[],[],[],[],0.618,1,484.949,485.449,,,,,,1187,MAS,AGR,150,plato,el,l,485.451,485.453,0.016927083,-0.4375,0,0,0,,0,191,191,286,1,,,,
,,,,,,eeac1da0343c561b2d10b8fa,66a626ef09d4e21e1a8894ec,673768162bd316f69f3696a6,2024-11-15_12h27.06.171,Tarea de género gramatical,2024.2.2,Win32,60.0240096,,,,,,,,,,,,,,,,,,,,,,,,485.454,486.549,a,1,0.421,,[],[],[],[],[],[],[],0.421,1,486.549,487.049,,,,,,1086,MAS,CON,150,error,,l,487.049,487.05,0.016927083,-0.4375,0,0,0,,0,192,192,185,1,,,,
,,,,,,eeac1da0343c561b2d10b8fa,66a626ef09d4e21e1a8894ec,673768162bd316f69f3696a6,2024-11-15_12h27.06.171,Tarea de género gramatical,2024.2.2,Win32,60.0240096,,,,,,,,,,,,,,,,,,,,,,,,487.051,488.066,l,1,0.34,,[],[],[],[],[],[],[],0.34,1,488.067,488.566,,,,,,927,FEM,CON,150,mesa,,a,488.566,488.566,0.016927083,-0.4375,0,0,0,,0,193,193,26,1,,,,
,,,,,,eeac1da0343c561b2d10b8fa,66a626ef09d4e21e1a8894ec,673768162bd316f69f3696a6,2024-11-15_12h27.06.171,Tarea de género gramatical,2024.2.2,Win32,60.0240096,,,,,,,,,,,,,,,,,,,,,,,,488.568,489.699,l,1,0.45,,[],[],[],[],[],[],[],0.45,1,489.699,490.199,,,,,,1333,FEM,DIS,150,huella,el,a,490.199,490.199,0.016927083,-0.4375,0,0,0,,0,194,194,432,1,,,,
,,,,,,eeac1da0343c561b2d10b8fa,66a626ef09d4e21e1a8894ec,673768162bd316f69f3696a6,2024-11-15_12h27.06.171,Tarea de género gramatical,2024.2.2,Win32,60.0240096,,,,,,,,,,,,,,,,,,,,,,,,490.201,491.249,a,1,0.367,,[],[],[],[],[],[],[],0.367,1,491.25,491.75,,,,,,1128,MAS,CON,150,nivel,,l,491.754,491.757,0.016927083,-0.4375,0,0,0,,0,195,195,227,1,,,,
,,,,,,eeac1da0343c561b2d10b8fa,66a626ef09d4e21e1a8894ec,673768162bd316f69f3696a6,2024-11-15_12h27.06.171,Tarea de género gramatical,2024.2.2,Win32,60.0240096,,,,,,,,,,,,,,,,,,,,,,,,491.76,492.767,l,1,0.335,,[],[],[],[],[],[],[],0.335,1,492.768,493.266,,,,,,1077,FEM,CON,150,broma,,a,493.266,493.267,0.016927083,-0.4375,0,0,0,,0,196,196,176,1,,,,
,,,,,,eeac1da0343c561b2d10b8fa,66a626ef09d4e21e1a8894ec,673768162bd316f69f3696a6,2024-11-15_12h27.06.171,Tarea de género gramatical,2024.2.2,Win32,60.0240096,,,,,,,,,,,,,,,,,,,,,,,,493.27,494.382,a,1,0.436,,[],[],[],[],[],[],[],0.436,1,494.382,494.883,,,,,,1007,MAS,AGR,150,cubo,el,l,494.883,494.883,0.016927083,-0.4375,0,0,0,,0,197,197,106,1,,,,
,,,,,,eeac1da0343c561b2d10b8fa,66a626ef09d4e21e1a8894ec,673768162bd316f69f3696a6,2024-11-15_12h27.06.171,Tarea de género gramatical,2024.2.2,Win32,60.0240096,,,,,,,,,,,,,,,,,,,,,,,,494.887,495.866,l,1,0.306,,[],[],[],[],[],[],[],0.306,1,495.866,496.365,,,,,,1129,FEM,DIS,150,celda,el,a,496.366,496.366,0.016927083,-0.4375,0,0,0,,0,198,198,228,1,,,,
,,,,,,eeac1da0343c561b2d10b8fa,66a626ef09d4e21e1a8894ec,673768162bd316f69f3696a6,2024-11-15_12h27.06.171,Tarea de género gramatical,2024.2.2,Win32,60.0240096,,,,,,,,,,,,,,,,,,,,,,,,496.368,497.516,a,1,0.467,,[],[],[],[],[],[],[],0.467,1,497.516,498.015,,,,,,1326,MAS,CON,150,pánico,,l,498.016,498.017,0.016927083,-0.4375,0,0,0,,0,199,199,425,1,,,,
,,,,,,eeac1da0343c561b2d10b8fa,66a626ef09d4e21e1a8894ec,673768162bd316f69f3696a6,2024-11-15_12h27.06.171,Tarea de género gramatical,2024.2.2,Win32,60.0240096,,,,,,,,,,,,,,,,,,,,,,,,498.019,499,l,1,0.31,,[],[],[],[],[],[],[],0.31,1,499,499.5,,,,,,1137,FEM,CON,150,ducha,,a,499.501,499.504,0.016927083,-0.4375,0,0,0,,0,200,200,236,1,,,,
,,,,,,eeac1da0343c561b2d10b8fa,66a626ef09d4e21e1a8894ec,673768162bd316f69f3696a6,2024-11-15_12h27.06.171,Tarea de género gramatical,2024.2.2,Win32,60.0240096,,,,,,,,,,,,,,,,,,,,,,,,499.505,500.849,a,1,0.666,,[],[],[],[],[],[],[],0.666,1,500.85,501.35,,,,,,1158,MAS,CON,150,polvo,,l,501.35,501.35,0.016927083,-0.4375,0,0,0,,0,201,201,257,1,,,,
,,,,,,eeac1da0343c561b2d10b8fa,66a626ef09d4e21e1a8894ec,673768162bd316f69f3696a6,2024-11-15_12h27.06.171,Tarea de género gramatical,2024.2.2,Win32,60.0240096,,,,,,,,,,,,,,,,,,,,,,,,501.354,502.633,a,1,0.608,,[],[],[],[],[],[],[],0.608,1,502.633,503.133,,,,,,971,MAS,AGR,150,pozo,el,l,503.133,503.134,0.016927083,-0.4375,0,0,0,,0,202,202,70,1,,,,
,,,,,,eeac1da0343c561b2d10b8fa,66a626ef09d4e21e1a8894ec,673768162bd316f69f3696a6,2024-11-15_12h27.06.171,Tarea de género gramatical,2024.2.2,Win32,60.0240096,,,,,,,,,,,,,,,,,,,,,,,,503.136,504.283,l,1,0.469,,[],[],[],[],[],[],[],0.469,1,504.285,504.782,,,,,,1059,FEM,CON,150,clase,,a,504.782,504.783,0.016927083,-0.4375,0,0,0,,0,203,203,158,1,,,,
,,,,,,eeac1da0343c561b2d10b8fa,66a626ef09d4e21e1a8894ec,673768162bd316f69f3696a6,2024-11-15_12h27.06.171,Tarea de género gramatical,2024.2.2,Win32,60.0240096,,,,,,,,,,,,,,,,,,,,,,,,504.786,505.883,l,1,0.423,,[],[],[],[],[],[],[],0.423,1,505.883,506.383,,,,,,962,FEM,AGR,150,sopa,la,a,506.385,506.387,0.016927083,-0.4375,0,0,0,,0,204,204,61,1,,,,
,,,,,,eeac1da0343c561b2d10b8fa,66a626ef09d4e21e1a8894ec,673768162bd316f69f3696a6,2024-11-15_12h27.06.171,Tarea de género gramatical,2024.2.2,Win32,60.0240096,,,,,,,,,,,,,,,,,,,,,,,,506.388,507.85,a,1,0.791,,[],[],[],[],[],[],[],0.791,1,507.85,508.349,,,,,,1200,MAS,CON,150,túnel,,l,508.349,508.35,0.016927083,-0.4375,0,0,0,,0,205,205,299,1,,,,
,,,,,,eeac1da0343c561b2d10b8fa,66a626ef09d4e21e1a8894ec,673768162bd316f69f3696a6,2024-11-15_12h27.06.171,Tarea de género gramatical,2024.2.2,Win32,60.0240096,,,,,,,,,,,,,,,,,,,,,,,,508.352,509.416,l,1,0.391,,[],[],[],[],[],[],[],0.391,1,509.417,509.916,,,,,,1041,FEM,CON,150,cera,,a,509.916,509.917,0.016927083,-0.4375,0,0,0,,0,206,206,140,1,,,,
,,,,,,eeac1da0343c561b2d10b8fa,66a626ef09d4e21e1a8894ec,673768162bd316f69f3696a6,2024-11-15_12h27.06.171,Tarea de género gramatical,2024.2.2,Win32,60.0240096,,,,,,,,,,,,,,,,,,,,,,,,509.919,510.966,l,1,0.368,,[],[],[],[],[],[],[],0.368,1,510.967,511.466,,,,,,1052,FEM,AGR,150,gente,la,a,511.466,511.467,0.016927083,-0.4375,0,0,0,,0,207,207,151,1,,,,
,,,,,,eeac1da0343c561b2d10b8fa,66a626ef09d4e21e1a8894ec,673768162bd316f69f3696a6,2024-11-15_12h27.06.171,Tarea de género gramatical,2024.2.2,Win32,60.0240096,,,,,,,,,,,,,,,,,,,,,,,,511.469,513.084,a,1,0.933,,[],[],[],[],[],[],[],0.933,1,513.085,513.584,,,,,,940,MAS,DIS,150,dios,la,l,513.584,513.585,0.016927083,-0.4375,0,0,0,,0,208,208,39,1,,,,
,,,,,,eeac1da0343c561b2d10b8fa,66a626ef09d4e21e1a8894ec,673768162bd316f69f3696a6,2024-11-15_12h27.06.171,Tarea de género gramatical,2024.2.2,Win32,60.0240096,,,,,,,,,,,,,,,,,,,,,,,,513.587,515.066,l,1,0.8,,[],[],[],[],[],[],[],0.8,1,515.066,515.566,,,,,,1015,FEM,DIS,150,seda,el,a,515.569,515.571,0.016927083,-0.4375,0,0,0,,0,209,209,114,1,,,,
,,,,,,eeac1da0343c561b2d10b8fa,66a626ef09d4e21e1a8894ec,673768162bd316f69f3696a6,2024-11-15_12h27.06.171,Tarea de género gramatical,2024.2.2,Win32,60.0240096,,,,,,,,,,,,,,,,,,,,,,,,515.571,516.75,l,1,0.501,,[],[],[],[],[],[],[],0.501,1,516.751,517.25,,,,,,1293,FEM,CON,150,alarma,,a,517.25,517.25,0.016927083,-0.4375,0,0,0,,0,210,210,392,1,,,,
,,,,,,eeac1da0343c561b2d10b8fa,66a626ef09d4e21e1a8894ec,673768162bd316f69f3696a6,2024-11-15_12h27.06.171,Tarea de género gramatical,2024.2.2,Win32,60.0240096,,,,,,,,,,,,,,,,,,,,,,,,517.252,518.385,l,1,0.453,,[],[],[],[],[],[],[],0.453,1,518.385,518.884,,,,,,1095,FEM,CON,150,pared,,a,518.884,518.885,0.016927083,-0.4375,0,0,0,,0,211,211,194,1,,,,
,,,,,,eeac1da0343c561b2d10b8fa,66a626ef09d4e21e1a8894ec,673768162bd316f69f3696a6,2024-11-15_12h27.06.171,Tarea de género gramatical,2024.2.2,Win32,60.0240096,,,,,,,,,,,,,,,,,,,,,,,,518.887,519.967,a,1,0.4,,[],[],[],[],[],[],[],0.4,1,519.967,520.466,,,,,,1325,MAS,AGR,150,chiste,el,l,520.466,520.467,0.016927083,-0.4375,0,0,0,,0,212,212,424,1,,,,
,,,,,,eeac1da0343c561b2d10b8fa,66a626ef09d4e21e1a8894ec,673768162bd316f69f3696a6,2024-11-15_12h27.06.171,Tarea de género gramatical,2024.2.2,Win32,60.0240096,,,,,,,,,,,,,,,,,,,,,,,,520.47,521.586,a,1,0.446,,[],[],[],[],[],[],[],0.446,1,521.587,522.084,,,,,,1188,MAS,CON,150,grado,,l,522.086,522.088,0.016927083,-0.4375,0,0,0,,0,213,213,287,1,,,,
,,,,,,eeac1da0343c561b2d10b8fa,66a626ef09d4e21e1a8894ec,673768162bd316f69f3696a6,2024-11-15_12h27.06.171,Tarea de género gramatical,2024.2.2,Win32,60.0240096,,,,,,,,,,,,,,,,,,,,,,,,522.089,523.066,l,1,0.302,,[],[],[],[],[],[],[],0.302,1,523.067,523.567,,,,,,926,FEM,AGR,150,pena,la,a,523.567,523.567,0.016927083,-0.4375,0,0,0,,0,214,214,25,1,,,,
,,,,,,eeac1da0343c561b2d10b8fa,66a626ef09d4e21e1a8894ec,673768162bd316f69f3696a6,2024-11-15_12h27.06.171,Tarea de género gramatical,2024.2.2,Win32,60.0240096,,,,,,,,,,,,,,,,,,,,,,,,523.569,524.566,l,1,0.316,,[],[],[],[],[],[],[],0.316,1,524.566,525.069,,,,,,1275,FEM,CON,150,cadena,,a,525.069,525.07,0.016927083,-0.4375,0,0,0,,0,215,215,374,1,,,,
,,,,,,eeac1da0343c561b2d10b8fa,66a626ef09d4e21e1a8894ec,673768162bd316f69f3696a6,2024-11-15_12h27.06.171,Tarea de género gramatical,2024.2.2,Win32,60.0240096,,,,,,,,,,,,,,,,,,,,,,,,525.074,526.135,a,1,0.385,,[],[],[],[],[],[],[],0.385,1,526.136,526.634,,,,,,1073,MAS,AGR,150,libro,el,l,526.634,526.635,0.016927083,-0.4375,0,0,0,,0,216,216,172,1,,,,
,,,,,,eeac1da0343c561b2d10b8fa,66a626ef09d4e21e1a8894ec,673768162bd316f69f3696a6,2024-11-15_12h27.06.171,Tarea de género gramatical,2024.2.2,Win32,60.0240096,,,,,,,,,,,,,,,,,,,,,,,,526.637,527.734,l,1,0.42,,[],[],[],[],[],[],[],0.42,1,527.735,528.234,,,,,,957,FEM,CON,150,moda,,a,528.234,528.235,0.016927083,-0.4375,0,0,0,,0,217,217,56,1,,,,
,,,,,,eeac1da0343c561b2d10b8fa,66a626ef09d4e21e1a8894ec,673768162bd316f69f3696a6,2024-11-15_12h27.06.171,Tarea de género gramatical,2024.2.2,Win32,60.0240096,,,,,,,,,,,,,,,,,,,,,,,,528.236,529.184,l,1,0.271,,[],[],[],[],[],[],[],0.271,1,529.185,529.685,,,,,,1131,FEM,CON,150,bruja,,a,529.687,529.689,0.016927083,-0.4375,0,0,0,,0,218,218,230,1,,,,
,,,,,,eeac1da0343c561b2d10b8fa,66a626ef09d4e21e1a8894ec,673768162bd316f69f3696a6,2024-11-15_12h27.06.171,Tarea de género gramatical,2024.2.2,Win32,60.0240096,,,,,,,,,,,,,,,,,,,,,,,,529.691,530.701,l,1,0.334,,[],[],[],[],[],[],[],0.334,1,530.701,531.2,,,,,,1065,FEM,CON,150,amiga,,a,531.2,531.201,0.016927083,-0.4375,0,0,0,,0,219,219,164,1,,,,
,,,,,,eeac1da0343c561b2d10b8fa,66a626ef09d4e21e1a8894ec,673768162bd316f69f3696a6,2024-11-15_12h27.06.171,Tarea de género gramatical,2024.2.2,Win32,60.0240096,,,,,,,,,,,,,,,,,,,,,,,,531.203,532.317,l,1,0.435,,[],[],[],[],[],[],[],0.435,1,532.317,532.817,,,,,,1267,FEM,DIS,150,teoría,el,a,532.817,532.818,0.016927083,-0.4375,0,0,0,,0,220,220,366,1,,,,
,,,,,,eeac1da0343c561b2d10b8fa,66a626ef09d4e21e1a8894ec,673768162bd316f69f3696a6,2024-11-15_12h27.06.171,Tarea de género gramatical,2024.2.2,Win32,60.0240096,,,,,,,,,,,,,,,,,,,,,,,,532.82,533.967,a,1,0.468,,[],[],[],[],[],[],[],0.468,1,533.967,534.467,,,,,,1218,MAS,CON,150,pueblo,,l,534.467,534.467,0.016927083,-0.4375,0,0,0,,0,221,221,317,1,,,,
,,,,,,eeac1da0343c561b2d10b8fa,66a626ef09d4e21e1a8894ec,673768162bd316f69f3696a6,2024-11-15_12h27.06.171,Tarea de género gramatical,2024.2.2,Win32,60.0240096,,,,,,,,,,,,,,,,,,,,,,,,534.469,535.467,l,1,0.318,,[],[],[],[],[],[],[],0.318,1,535.467,535.967,,,,,,1273,FEM,DIS,150,lluvia,el,a,535.968,535.971,0.016927083,-0.4375,0,0,0,,0,222,222,372,1,,,,
,,,,,,eeac1da0343c561b2d10b8fa,66a626ef09d4e21e1a8894ec,673768162bd316f69f3696a6,2024-11-15_12h27.06.171,Tarea de género gramatical,2024.2.2,Win32,60.0240096,,,,,,,,,,,,,,,,,,,,,,,,535.971,537,l,1,0.352,,[],[],[],[],[],[],[],0.352,1,537.001,537.5,,,,,,985,FEM,DIS,150,gira,el,a,537.5,537.5,0.016927083,-0.4375,0,0,0,,0,223,223,84,1,,,,
,,,,,,eeac1da0343c561b2d10b8fa,66a626ef09d4e21e1a8894ec,673768162bd316f69f3696a6,2024-11-15_12h27.06.171,Tarea de género gramatical,2024.2.2,Win32,60.0240096,,,,,,,,,,,,,,,,,,,,,,,,537.503,538.951,a,1,0.768,,[],[],[],[],[],[],[],0.768,1,538.951,539.451,,,,,,1144,MAS,DIS,150,hielo,la,l,539.451,539.451,0.016927083,-0.4375,0,0,0,,0,224,224,243,1,,,,
,,,,,,eeac1da0343c561b2d10b8fa,66a626ef09d4e21e1a8894ec,673768162bd316f69f3696a6,2024-11-15_12h27.06.171,Tarea de género gramatical,2024.2.2,Win32,60.0240096,,,,,,,,,,,,,,,,,,,,,,,,539.452,540.485,a,1,0.354,,[],[],[],[],[],[],[],0.354,1,540.485,540.984,,,,,,990,MAS,CON,150,león,,l,540.984,540.984,0.016927083,-0.4375,0,0,0,,0,225,225,89,1,,,,
,,,,,,eeac1da0343c561b2d10b8fa,66a626ef09d4e21e1a8894ec,673768162bd316f69f3696a6,2024-11-15_12h27.06.171,Tarea de género gramatical,2024.2.2,Win32,60.0240096,,,,,,,,,,,,,,,,,,,,,,,,540.987,542.018,l,0,0.35,,[],[],[],[],[],[],[],0.35,0,542.021,542.517,,,,,,1072,MAS,DIS,150,poder,la,l,542.517,542.517,0.016927083,-0.4375,0,0,0,,0,226,226,171,1,,,,
,,,,,,eeac1da0343c561b2d10b8fa,66a626ef09d4e21e1a8894ec,673768162bd316f69f3696a6,2024-11-15_12h27.06.171,Tarea de género gramatical,2024.2.2,Win32,60.0240096,,,,,,,,,,,,,,,,,,,,,,,,542.519,543.6,l,1,0.4,,[],[],[],[],[],[],[],0.4,1,543.602,544.101,,,,,,992,FEM,AGR,150,masa,la,a,544.103,544.105,0.016927083,-0.4375,0,0,0,,0,227,227,91,1,,,,
,,,,,,eeac1da0343c561b2d10b8fa,66a626ef09d4e21e1a8894ec,673768162bd316f69f3696a6,2024-11-15_12h27.06.171,Tarea de género gramatical,2024.2.2,Win32,60.0240096,,,,,,,,,,,,,,,,,,,,,,,,544.106,545.467,a,1,0.682,,[],[],[],[],[],[],[],0.682,1,545.468,545.967,,,,,,942,MAS,CON,150,show,,l,545.968,545.968,0.016927083,-0.4375,0,0,0,,0,228,228,41,1,,,,
,,,,,,eeac1da0343c561b2d10b8fa,66a626ef09d4e21e1a8894ec,673768162bd316f69f3696a6,2024-11-15_12h27.06.171,Tarea de género gramatical,2024.2.2,Win32,60.0240096,,,,,,,,,,,,,,,,,,,,,,,,545.97,547.567,a,1,0.917,,[],[],[],[],[],[],[],0.917,1,547.568,548.067,,,,,,1098,MAS,CON,150,hotel,,l,548.067,548.068,0.016927083,-0.4375,0,0,0,,0,229,229,197,1,,,,
,,,,,,eeac1da0343c561b2d10b8fa,66a626ef09d4e21e1a8894ec,673768162bd316f69f3696a6,2024-11-15_12h27.06.171,Tarea de género gramatical,2024.2.2,Win32,60.0240096,,,,,,,,,,,,,,,,,,,,,,,,548.069,549.118,a,1,0.37,,[],[],[],[],[],[],[],0.37,1,549.118,549.617,,,,,,1032,MAS,CON,150,velo,,l,549.617,549.618,0.016927083,-0.4375,0,0,0,,0,230,230,131,1,,,,
,,,,,,eeac1da0343c561b2d10b8fa,66a626ef09d4e21e1a8894ec,673768162bd316f69f3696a6,2024-11-15_12h27.06.171,Tarea de género gramatical,2024.2.2,Win32,60.0240096,,,,,,,,,,,,,,,,,,,,,,,,549.62,550.685,l,1,0.382,,[],[],[],[],[],[],[],0.382,1,550.686,551.184,,,,,,1261,FEM,DIS,150,oferta,el,a,551.186,551.188,0.016927083,-0.4375,0,0,0,,0,231,231,360,1,,,,
,,,,,,eeac1da0343c561b2d10b8fa,66a626ef09d4e21e1a8894ec,673768162bd316f69f3696a6,2024-11-15_12h27.06.171,Tarea de género gramatical,2024.2.2,Win32,60.0240096,,,,,,,,,,,,,,,,,,,,,,,,551.188,552.401,a,1,0.535,,[],[],[],[],[],[],[],0.535,1,552.401,552.901,,,,,,918,MAS,CON,150,tren,,l,552.901,552.901,0.016927083,-0.4375,0,0,0,,0,232,232,17,1,,,,
,,,,,,eeac1da0343c561b2d10b8fa,66a626ef09d4e21e1a8894ec,673768162bd316f69f3696a6,2024-11-15_12h27.06.171,Tarea de género gramatical,2024.2.2,Win32,60.0240096,,,,,,,,,,,,,,,,,,,,,,,,552.903,553.935,l,1,0.351,,[],[],[],[],[],[],[],0.351,1,553.936,554.434,,,,,,1172,FEM,AGR,150,oreja,la,a,554.435,554.435,0.016927083,-0.4375,0,0,0,,0,233,233,271,1,,,,
,,,,,,eeac1da0343c561b2d10b8fa,66a626ef09d4e21e1a8894ec,673768162bd316f69f3696a6,2024-11-15_12h27.06.171,Tarea de género gramatical,2024.2.2,Win32,60.0240096,,,,,,,,,,,,,,,,,,,,,,,,554.437,555.434,l,1,0.318,,[],[],[],[],[],[],[],0.318,1,555.435,555.934,,,,,,1287,FEM,CON,150,página,,a,555.935,555.935,0.016927083,-0.4375,0,0,0,,0,234,234,386,1,,,,
,,,,,,eeac1da0343c561b2d10b8fa,66a626ef09d4e21e1a8894ec,673768162bd316f69f3696a6,2024-11-15_12h27.06.171,Tarea de género gramatical,2024.2.2,Win32,60.0240096,,,,,,,,,,,,,,,,,,,,,,,,555.937,556.967,l,1,0.353,,[],[],[],[],[],[],[],0.353,1,556.968,557.467,,,,,,1262,FEM,AGR,150,fuente,la,a,557.468,557.468,0.016927083,-0.4375,0,0,0,,0,235,235,361,1,,,,
,,,,,,eeac1da0343c561b2d10b8fa,66a626ef09d4e21e1a8894ec,673768162bd316f69f3696a6,2024-11-15_12h27.06.171,Tarea de género gramatical,2024.2.2,Win32,60.0240096,,,,,,,,,,,,,,,,,,,,,,,,557.47,558.468,l,1,0.324,,[],[],[],[],[],[],[],0.324,1,558.468,558.97,,,,,,1089,FEM,CON,150,pista,,a,558.973,558.976,0.016927083,-0.4375,0,0,0,,0,236,236,188,1,,,,
,,,,,,eeac1da0343c561b2d10b8fa,66a626ef09d4e21e1a8894ec,673768162bd316f69f3696a6,2024-11-15_12h27.06.171,Tarea de género gramatical,2024.2.2,Win32,60.0240096,,,,,,,,,,,,,,,,,,,,,,,,558.978,560.052,a,1,0.401,,[],[],[],[],[],[],[],0.401,1,560.054,560.552,,,,,,1084,MAS,DIS,150,cielo,la,l,560.552,560.552,0.016927083,-0.4375,0,0,0,,0,237,237,183,1,,,,
,,,,,,eeac1da0343c561b2d10b8fa,66a626ef09d4e21e1a8894ec,673768162bd316f69f3696a6,2024-11-15_12h27.06.171,Tarea de género gramatical,2024.2.2,Win32,60.0240096,,,,,,,,,,,,,,,,,,,,,,,,560.555,561.585,l,1,0.353,,[],[],[],[],[],[],[],0.353,1,561.585,562.085,,,,,,913,FEM,DIS,150,hija,el,a,562.085,562.085,0.016927083,-0.4375,0,0,0,,0,238,238,12,1,,,,
,,,,,,eeac1da0343c561b2d10b8fa,66a626ef09d4e21e1a8894ec,673768162bd316f69f3696a6,2024-11-15_12h27.06.171,Tarea de género gramatical,2024.2.2,Win32,60.0240096,,,,,,,,,,,,,,,,,,,,,,,,562.088,563.185,a,1,0.428,,[],[],[],[],[],[],[],0.428,1,563.185,563.685,,,,,,917,MAS,AGR,150,modo,el,l,563.685,563.685,0.016927083,-0.4375,0,0,0,,0,239,239,16,1,,,,
,,,,,,eeac1da0343c561b2d10b8fa,66a626ef09d4e21e1a8894ec,673768162bd316f69f3696a6,2024-11-15_12h27.06.171,Tarea de género gramatical,2024.2.2,Win32,60.0240096,,,,,,,,,,,,,,,,,,,,,,,,563.688,564.751,l,1,0.387,,[],[],[],[],[],[],[],0.387,1,564.751,565.251,,,,,,949,FEM,DIS,150,piel,el,a,565.253,565.256,0.016927083,-0.4375,0,0,0,,0,240,240,48,1,,,,
,,,,,,eeac1da0343c561b2d10b8fa,66a626ef09d4e21e1a8894ec,673768162bd316f69f3696a6,2024-11-15_12h27.06.171,Tarea de género gramatical,2024.2.2,Win32,60.0240096,,,,,,,,,,,,,,,,,,,,,,,,565.256,566.367,a,1,0.443,,[],[],[],[],[],[],[],0.443,1,566.368,566.868,,,,,,1116,MAS,CON,150,éxito,,l,566.868,566.868,0.016927083,-0.4375,0,0,0,,0,241,241,215,1,,,,
,,,,,,eeac1da0343c561b2d10b8fa,66a626ef09d4e21e1a8894ec,673768162bd316f69f3696a6,2024-11-15_12h27.06.171,Tarea de género gramatical,2024.2.2,Win32,60.0240096,,,,,,,,,,,,,,,,,,,,,,,,566.87,567.885,l,1,0.334,,[],[],[],[],[],[],[],0.334,1,567.885,568.385,,,,,,1113,FEM,CON,150,magia,,a,568.385,568.385,0.016927083,-0.4375,0,0,0,,0,242,242,212,1,,,,
,,,,,,eeac1da0343c561b2d10b8fa,66a626ef09d4e21e1a8894ec,673768162bd316f69f3696a6,2024-11-15_12h27.06.171,Tarea de género gramatical,2024.2.2,Win32,60.0240096,,,,,,,,,,,,,,,,,,,,,,,,568.387,569.701,a,1,0.634,,[],[],[],[],[],[],[],0.634,1,569.701,570.201,,,,,,1210,MAS,DIS,150,nombre,la,l,570.201,570.201,0.016927083,-0.4375,0,0,0,,0,243,243,309,1,,,,
,,,,,,eeac1da0343c561b2d10b8fa,66a626ef09d4e21e1a8894ec,673768162bd316f69f3696a6,2024-11-15_12h27.06.171,Tarea de género gramatical,2024.2.2,Win32,60.0240096,,,,,,,,,,,,,,,,,,,,,,,,570.205,571.334,a,1,0.45,,[],[],[],[],[],[],[],0.45,1,571.335,571.835,,,,,,1344,MAS,CON,150,límite,,l,571.835,571.835,0.016927083,-0.4375,0,0,0,,0,244,244,443,1,,,,
,,,,,,eeac1da0343c561b2d10b8fa,66a626ef09d4e21e1a8894ec,673768162bd316f69f3696a6,2024-11-15_12h27.06.171,Tarea de género gramatical,2024.2.2,Win32,60.0240096,,,,,,,,,,,,,,,,,,,,,,,,571.837,572.984,a,1,0.467,,[],[],[],[],[],[],[],0.467,1,572.984,573.484,,,,,,1121,MAS,AGR,150,brazo,el,l,573.486,573.489,0.016927083,-0.4375,0,0,0,,0,245,245,220,1,,,,
,,,,,,eeac1da0343c561b2d10b8fa,66a626ef09d4e21e1a8894ec,673768162bd316f69f3696a6,2024-11-15_12h27.06.171,Tarea de género gramatical,2024.2.2,Win32,60.0240096,,,,,,,,,,,,,,,,,,,,,,,,573.489,574.535,a,1,0.366,,[],[],[],[],[],[],[],0.366,1,574.536,575.035,,,,,,1283,MAS,AGR,150,parque,el,l,575.035,575.035,0.016927083,-0.4375,0,0,0,,0,246,246,382,1,,,,
,,,,,,eeac1da0343c561b2d10b8fa,66a626ef09d4e21e1a8894ec,673768162bd316f69f3696a6,2024-11-15_12h27.06.171,Tarea de género gramatical,2024.2.2,Win32,60.0240096,,,,,,,,,,,,,,,,,,,,,,,,575.037,576.084,a,1,0.37,,[],[],[],[],[],[],[],0.37,1,576.085,576.585,,,,,,1336,MAS,DIS,150,objeto,la,l,576.585,576.585,0.016927083,-0.4375,0,0,0,,0,247,247,435,1,,,,
,,,,,,eeac1da0343c561b2d10b8fa,66a626ef09d4e21e1a8894ec,673768162bd316f69f3696a6,2024-11-15_12h27.06.171,Tarea de género gramatical,2024.2.2,Win32,60.0240096,,,,,,,,,,,,,,,,,,,,,,,,576.586,577.635,l,0,0.367,,[],[],[],[],[],[],[],0.367,0,577.636,578.135,,,,,,1054,MAS,DIS,150,padre,la,l,578.135,578.135,0.016927083,-0.4375,0,0,0,,0,248,248,153,1,,,,
,,,,,,eeac1da0343c561b2d10b8fa,66a626ef09d4e21e1a8894ec,673768162bd316f69f3696a6,2024-11-15_12h27.06.171,Tarea de género gramatical,2024.2.2,Win32,60.0240096,,,,,,,,,,,,,,,,,,,,,,,,578.138,579.219,l,1,0.407,,[],[],[],[],[],[],[],0.407,1,579.22,579.719,,,,,,991,FEM,DIS,150,hoja,el,a,579.719,579.722,0.016927083,-0.4375,0,0,0,,0,249,249,90,1,,,,
,,,,,,eeac1da0343c561b2d10b8fa,66a626ef09d4e21e1a8894ec,673768162bd316f69f3696a6,2024-11-15_12h27.06.171,Tarea de género gramatical,2024.2.2,Win32,60.0240096,,,,,,,,,,,,,,,,,,,,,,,,579.723,580.784,l,1,0.39,,[],[],[],[],[],[],[],0.39,1,580.785,581.285,,,,,,1153,FEM,DIS,150,aldea,el,a,581.285,581.285,0.016927083,-0.4375,0,0,0,,0,250,250,252,1,,,,
,,,,,,eeac1da0343c561b2d10b8fa,66a626ef09d4e21e1a8894ec,673768162bd316f69f3696a6,2024-11-15_12h27.06.171,Tarea de género gramatical,2024.2.2,Win32,60.0240096,,,,,,,,,,,,,,,,,,,,,,,,581.287,582.418,a,1,0.457,,[],[],[],[],[],[],[],0.457,1,582.419,582.918,,,,,,1068,MAS,CON,150,sitio,,l,582.918,582.919,0.016927083,-0.4375,0,0,0,,0,251,251,167,1,,,,
,,,,,,eeac1da0343c561b2d10b8fa,66a626ef09d4e21e1a8894ec,673768162bd316f69f3696a6,2024-11-15_12h27.06.171,Tarea de género gramatical,2024.2.2,Win32,60.0240096,,,,,,,,,,,,,,,,,,,,,,,,582.92,584.035,l,1,0.439,,[],[],[],[],[],[],[],0.439,1,584.036,584.535,,,,,,1185,FEM,CON,150,mafia,,a,584.536,584.536,0.016927083,-0.4375,0,0,0,,0,252,252,284,1,,,,
,,,,,,eeac1da0343c561b2d10b8fa,66a626ef09d4e21e1a8894ec,673768162bd316f69f3696a6,2024-11-15_12h27.06.171,Tarea de género gramatical,2024.2.2,Win32,60.0240096,,,,,,,,,,,,,,,,,,,,,,,,584.538,585.768,a,1,0.559,,[],[],[],[],[],[],[],0.559,1,585.768,586.268,,,,,,1348,MAS,DIS,150,aceite,la,l,586.269,586.269,0.016927083,-0.4375,0,0,0,,0,253,253,447,1,,,,
,,,,,,eeac1da0343c561b2d10b8fa,66a626ef09d4e21e1a8894ec,673768162bd316f69f3696a6,2024-11-15_12h27.06.171,Tarea de género gramatical,2024.2.2,Win32,60.0240096,,,,,,,,,,,,,,,,,,,,,,,,586.27,587.269,l,1,0.321,,[],[],[],[],[],[],[],0.321,1,587.269,587.768,,,,,,1232,FEM,AGR,150,basura,la,a,587.769,587.772,0.016927083,-0.4375,0,0,0,,0,254,254,331,1,,,,
,,,,,,eeac1da0343c561b2d10b8fa,66a626ef09d4e21e1a8894ec,673768162bd316f69f3696a6,2024-11-15_12h27.06.171,Tarea de género gramatical,2024.2.2,Win32,60.0240096,,,,,,,,,,,,,,,,,,,,,,,,587.772,588.835,l,1,0.389,,[],[],[],[],[],[],[],0.389,1,588.836,589.335,,,,,,1219,FEM,DIS,150,sangre,el,a,589.335,589.335,0.016927083,-0.4375,0,0,0,,0,255,255,318,1,,,,
,,,,,,eeac1da0343c561b2d10b8fa,66a626ef09d4e21e1a8894ec,673768162bd316f69f3696a6,2024-11-15_12h27.06.171,Tarea de género gramatical,2024.2.2,Win32,60.0240096,,,,,,,,,,,,,,,,,,,,,,,,589.338,590.418,l,1,0.401,,[],[],[],[],[],[],[],0.401,1,590.418,590.918,,,,,,1220,FEM,AGR,150,fiesta,la,a,590.918,590.919,0.016927083,-0.4375,0,0,0,,0,256,256,319,1,,,,
,,,,,,eeac1da0343c561b2d10b8fa,66a626ef09d4e21e1a8894ec,673768162bd316f69f3696a6,2024-11-15_12h27.06.171,Tarea de género gramatical,2024.2.2,Win32,60.0240096,,,,,,,,,,,,,,,,,,,,,,,,590.92,592.135,a,1,0.534,,[],[],[],[],[],[],[],0.534,1,592.136,592.636,,,,,,1343,MAS,AGR,150,templo,el,l,592.638,592.639,0.016927083,-0.4375,0,0,0,,0,257,257,442,1,,,,
,,,,,,eeac1da0343c561b2d10b8fa,66a626ef09d4e21e1a8894ec,673768162bd316f69f3696a6,2024-11-15_12h27.06.171,Tarea de género gramatical,2024.2.2,Win32,60.0240096,,,,,,,,,,,,,,,,,,,,,,,,592.642,593.737,l,1,0.427,,[],[],[],[],[],[],[],0.427,1,593.739,594.236,,,,,,1299,FEM,CON,150,charla,,a,594.238,594.24,0.016927083,-0.4375,0,0,0,,0,258,258,398,1,,,,
,,,,,,eeac1da0343c561b2d10b8fa,66a626ef09d4e21e1a8894ec,673768162bd316f69f3696a6,2024-11-15_12h27.06.171,Tarea de género gramatical,2024.2.2,Win32,60.0240096,,,,,,,,,,,,,,,,,,,,,,,,594.24,595.486,a,1,0.567,,[],[],[],[],[],[],[],0.567,1,595.486,595.985,,,,,,1277,MAS,AGR,150,jardín,el,l,595.985,595.986,0.016927083,-0.4375,0,0,0,,0,259,259,376,1,,,,
,,,,,,eeac1da0343c561b2d10b8fa,66a626ef09d4e21e1a8894ec,673768162bd316f69f3696a6,2024-11-15_12h27.06.171,Tarea de género gramatical,2024.2.2,Win32,60.0240096,,,,,,,,,,,,,,,,,,,,,,,,595.988,597.135,a,1,0.468,,[],[],[],[],[],[],[],0.468,1,597.136,597.636,,,,,,994,MAS,DIS,150,cabo,la,l,597.636,597.636,0.016927083,-0.4375,0,0,0,,0,260,260,93,1,,,,
,,,,,,eeac1da0343c561b2d10b8fa,66a626ef09d4e21e1a8894ec,673768162bd316f69f3696a6,2024-11-15_12h27.06.171,Tarea de género gramatical,2024.2.2,Win32,60.0240096,,,,,,,,,,,,,,,,,,,,,,,,597.638,598.652,a,1,0.338,,[],[],[],[],[],[],[],0.338,1,598.652,599.152,,,,,,1103,MAS,AGR,150,novio,el,l,599.152,599.152,0.016927083,-0.4375,0,0,0,,0,261,261,202,1,,,,
