counterbalancing_condition,consent_prescreening.block_1/declare_consent,consent_prescreening.block_1/age_years,consent_prescreening.block_1/gender,consent_prescreening.block_1/language_disorder,consent_prescreening.block_1/first_language,PROLIFIC_PID,STUDY_ID,SESSION_ID,date,expName,psychopyVersion,OS,frameRate,check_prescreening_answers.started,check_prescreening_answers.stopped,Instructions.started,Instructions.stopped,instr_done_keyboard.keys,instr_done_touch.x,instr_done_touch.y,instr_done_touch.leftButton,instr_done_touch.midButton,instr_done_touch.rightButton,instr_done_touch.clicked_name,instruction_pages.thisRepN,instruction_pages.thisTrialN,instruction_pages.thisN,instruction_pages.thisIndex,instruction_pages.ran,pageN,phase,instruct_text,has_image,instruct_image,instr_done_keyboard.rt,instr_done_keyboard.duration,presentTrial.started,presentTrial.stopped,response.keys,response.corr,response.rt,response.duration,touch_resp.x,touch_resp.y,touch_resp.leftButton,touch_resp.midButton,touch_resp.rightButton,touch_resp.time,touch_resp.clicked_name,rt,corr,feedback.started,feedback.stopped,practice_trials.thisRepN,practice_trials.thisTrialN,practice_trials.thisN,practice_trials.thisIndex,practice_trials.ran,TrialID,StimulusType,Condition,PrimeDuration,Prime,Flanker,corrAns,Break.started,Break.stopped,break_done_touch.x,break_done_touch.y,break_done_touch.leftButton,break_done_touch.midButton,break_done_touch.rightButton,break_done_keyboard.keys,experiment_trials.thisRepN,experiment_trials.thisTrialN,experiment_trials.thisN,experiment_trials.thisIndex,experiment_trials.ran,break_done_touch.clicked_name,break_done_keyboard.rt,break_done_keyboard.duration,End.started,End.stopped
1,"[""over_18"",""comfortable"",""read_info"",""consent_given""]",25,F,"[""none""]","[""spanish""]",f586470b3f0b1890e6311fb6,66a626ef09d4e21e1a8894ec,6734e04085a487704a4dbc87,2024-11-13_11h26.05.767,Tarea de género gramatical,2024.2.2,Win32,30.03003003,,,,,,,,,,,,,,,,,,,,,,,,,,,,,,,,,,,,,,,,,,,,,,,,,,,,,,,,,,,,,,,,,,,,,,
,,,,,,f586470b3f0b1890e6311fb6,66a626ef09d4e21e1a8894ec,6734e04085a487704a4dbc87,2024-11-13_11h26.05.767,Tarea de género gramatical,2024.2.2,Win32,30.03003003,35.7369,35.7371,,,,,,,,,,,,,,,,,,,,,,,,,,,,,,,,,,,,,,,,,,,,,,,,,,,,,,,,,,,,,,,,,,,,
,,,,,,f586470b3f0b1890e6311fb6,66a626ef09d4e21e1a8894ec,6734e04085a487704a4dbc87,2024-11-13_11h26.05.767,Tarea de género gramatical,2024.2.2,Win32,30.03003003,,,35.7857,48.5905,,-0.01171875,-0.413085938,1,0,0,instr_done_button,0,0,0,0,1,1,instructions,"INSTRUCCIONES
Va a realizar una prueba de selección gramatical. Desde el comienzo de la prueba mire siempre al centro de la pantalla. Al cabo de un momento, aparecerán palabras. La tarea consiste en determinar si la palabra del centro (siempre será un sustantivo), pertenece al género masculino o femenino.

Pulse la tecla ESPACIO o toque el botón de abajo para continuar.",0,keyboardresponseFM.png,,,,,,,,,,,,,,,,,,,,,,,,,,,,,,,,,,,,,,,,,,,,,,,,,
,,,,,,f586470b3f0b1890e6311fb6,66a626ef09d4e21e1a8894ec,6734e04085a487704a4dbc87,2024-11-13_11h26.05.767,Tarea de género gramatical,2024.2.2,Win32,30.03003003,,,48.598,64.6236,space,0.014648438,-0.381835938,0,0,0,,0,1,1,1,1,2,instructions,"Si su dispositivo tiene teclado, pulse la tecla ""A"" para las palabras en femenino (por ejemplo: ""mano"") y la tecla ""L"" para las palabras en masculino(por ejemplo: ""arroz"").
Pulse la tecla ESPACIO o toque el botón de abajo para continuar.",1,keyboardresponseFM.png,15.8988,,,,,,,,,,,,,,,,,,,,,,,,,,,,,,,,,,,,,,,,,,,,,,,,
,,,,,,f586470b3f0b1890e6311fb6,66a626ef09d4e21e1a8894ec,6734e04085a487704a4dbc87,2024-11-13_11h26.05.767,Tarea de género gramatical,2024.2.2,Win32,30.03003003,,,64.6289,68.3226,space,0.014648438,-0.381835938,0,0,0,,0,2,2,2,1,3,instructions,"Si utiliza un dispositivo sólo táctil, colóquelo en horizontal y utilice los botones de la pantalla. No utilice el ratón.
Pulse la tecla ESPACIO o toque el botón de abajo para continuar.",2,touchresponseFM.png,3.5993,,,,,,,,,,,,,,,,,,,,,,,,,,,,,,,,,,,,,,,,,,,,,,,,
,,,,,,f586470b3f0b1890e6311fb6,66a626ef09d4e21e1a8894ec,6734e04085a487704a4dbc87,2024-11-13_11h26.05.767,Tarea de género gramatical,2024.2.2,Win32,30.03003003,,,68.3286,77.3235,space,0.014648438,-0.381835938,0,0,0,,0,3,3,3,1,4,instructions,"Es muy importante que responda con la mayor rapidez y precisión posibles, ya que cada cadena de letras sólo estará en pantalla durante un instante. Si no responde en ese tiempo, aparecerá el mensaje ""Muy lento"" y el experimento pasará a la siguiente palabra. Los primeros 15 intentos serán de práctica y habrá dos descansos durante la prueba.
Pulse la tecla ESPACIO o toque el botón de abajo para iniciar la parte de práctica.",0,keyboardresponseFM.png,8.9706,,,,,,,,,,,,,,,,,,,,,,,,,,,,,,,,,,,,,,,,,,,,,,,,
,,,,,,f586470b3f0b1890e6311fb6,66a626ef09d4e21e1a8894ec,6734e04085a487704a4dbc87,2024-11-13_11h26.05.767,Tarea de género gramatical,2024.2.2,Win32,30.03003003,,,,,,,,,,,,,,,,,,,,,,,,77.3662,79.2245,a,1,1.1902,,[],[],[],[],[],[],[],1.1902,1,79.2254,79.724,0,0,0,0,1,2001,FEM,AGR,150,nuca,la,a,,,,,,,,,,,,,,,,,,
,,,,,,f586470b3f0b1890e6311fb6,66a626ef09d4e21e1a8894ec,6734e04085a487704a4dbc87,2024-11-13_11h26.05.767,Tarea de género gramatical,2024.2.2,Win32,30.03003003,,,,,,,,,,,,,,,,,,,,,,,,79.728,81.3567,a,1,0.951,,[],[],[],[],[],[],[],0.951,1,81.357,81.8565,0,1,1,4,1,2005,FEM,CON,150,placa,,a,,,,,,,,,,,,,,,,,,
,,,,,,f586470b3f0b1890e6311fb6,66a626ef09d4e21e1a8894ec,6734e04085a487704a4dbc87,2024-11-13_11h26.05.767,Tarea de género gramatical,2024.2.2,Win32,30.03003003,,,,,,,,,,,,,,,,,,,,,,,,81.8612,83.0901,a,0,0.5555,,[],[],[],[],[],[],[],0.5555,0,83.0928,83.5902,0,2,2,8,1,2009,MAS,DIS,150,puerto,la,l,,,,,,,,,,,,,,,,,,
,,,,,,f586470b3f0b1890e6311fb6,66a626ef09d4e21e1a8894ec,6734e04085a487704a4dbc87,2024-11-13_11h26.05.767,Tarea de género gramatical,2024.2.2,Win32,30.03003003,,,,,,,,,,,,,,,,,,,,,,,,83.5923,84.7902,a,1,0.5207,,[],[],[],[],[],[],[],0.5207,1,84.7919,85.29,0,3,3,1,1,2002,FEM,CON,150,pala,,a,,,,,,,,,,,,,,,,,,
,,,,,,f586470b3f0b1890e6311fb6,66a626ef09d4e21e1a8894ec,6734e04085a487704a4dbc87,2024-11-13_11h26.05.767,Tarea de género gramatical,2024.2.2,Win32,30.03003003,,,,,,,,,,,,,,,,,,,,,,,,85.292,86.6906,l,1,0.7214,,[],[],[],[],[],[],[],0.7214,1,86.6908,87.1904,0,4,4,10,1,2011,MAS,CON,150,canal,,l,,,,,,,,,,,,,,,,,,
,,,,,,f586470b3f0b1890e6311fb6,66a626ef09d4e21e1a8894ec,6734e04085a487704a4dbc87,2024-11-13_11h26.05.767,Tarea de género gramatical,2024.2.2,Win32,30.03003003,,,,,,,,,,,,,,,,,,,,,,,,87.1945,88.3907,l,1,0.5013,,[],[],[],[],[],[],[],0.5013,1,88.3909,88.8905,0,5,5,9,1,2010,MAS,AGR,150,vecino,el,l,,,,,,,,,,,,,,,,,,
,,,,,,f586470b3f0b1890e6311fb6,66a626ef09d4e21e1a8894ec,6734e04085a487704a4dbc87,2024-11-13_11h26.05.767,Tarea de género gramatical,2024.2.2,Win32,30.03003003,,,,,,,,,,,,,,,,,,,,,,,,88.8925,90.0572,a,1,0.4677,,[],[],[],[],[],[],[],0.4677,1,90.0573,90.5575,0,6,6,3,1,2004,FEM,AGR,150,venta,la,a,,,,,,,,,,,,,,,,,,
,,,,,,f586470b3f0b1890e6311fb6,66a626ef09d4e21e1a8894ec,6734e04085a487704a4dbc87,2024-11-13_11h26.05.767,Tarea de género gramatical,2024.2.2,Win32,30.03003003,,,,,,,,,,,,,,,,,,,,,,,,90.5615,92.1239,l,1,0.8782,,[],[],[],[],[],[],[],0.8782,1,92.1241,92.6235,0,7,7,11,1,2012,MAS,DIS,150,clima,la,l,,,,,,,,,,,,,,,,,,
,,,,,,f586470b3f0b1890e6311fb6,66a626ef09d4e21e1a8894ec,6734e04085a487704a4dbc87,2024-11-13_11h26.05.767,Tarea de género gramatical,2024.2.2,Win32,30.03003003,,,,,,,,,,,,,,,,,,,,,,,,92.6262,94.1909,l,0,0.8825,,[],[],[],[],[],[],[],0.8825,0,94.1925,94.6902,0,8,8,7,1,2008,FEM,CON,150,siesta,,a,,,,,,,,,,,,,,,,,,
,,,,,,f586470b3f0b1890e6311fb6,66a626ef09d4e21e1a8894ec,6734e04085a487704a4dbc87,2024-11-13_11h26.05.767,Tarea de género gramatical,2024.2.2,Win32,30.03003003,,,,,,,,,,,,,,,,,,,,,,,,94.6937,96.4907,l,1,1.1177,,[],[],[],[],[],[],[],1.1177,1,96.4926,96.9911,0,9,9,14,1,2015,MAS,DIS,150,robot,la,l,,,,,,,,,,,,,,,,,,
,,,,,,f586470b3f0b1890e6311fb6,66a626ef09d4e21e1a8894ec,6734e04085a487704a4dbc87,2024-11-13_11h26.05.767,Tarea de género gramatical,2024.2.2,Win32,30.03003003,,,,,,,,,,,,,,,,,,,,,,,,96.9941,98.2911,a,1,0.607,,[],[],[],[],[],[],[],0.607,1,98.2914,98.791,0,10,10,6,1,2007,FEM,AGR,150,navaja,la,a,,,,,,,,,,,,,,,,,,
,,,,,,f586470b3f0b1890e6311fb6,66a626ef09d4e21e1a8894ec,6734e04085a487704a4dbc87,2024-11-13_11h26.05.767,Tarea de género gramatical,2024.2.2,Win32,30.03003003,,,,,,,,,,,,,,,,,,,,,,,,98.793,100.2573,a,1,0.7673,,[],[],[],[],[],[],[],0.7673,1,100.2575,100.7574,0,11,11,5,1,2006,FEM,DIS,150,serie,el,a,,,,,,,,,,,,,,,,,,
,,,,,,f586470b3f0b1890e6311fb6,66a626ef09d4e21e1a8894ec,6734e04085a487704a4dbc87,2024-11-13_11h26.05.767,Tarea de género gramatical,2024.2.2,Win32,30.03003003,,,,,,,,,,,,,,,,,,,,,,,,100.7617,101.9912,a,1,0.5535,,[],[],[],[],[],[],[],0.5535,1,101.9914,102.4911,0,12,12,2,1,2003,FEM,DIS,150,daga,el,a,,,,,,,,,,,,,,,,,,
,,,,,,f586470b3f0b1890e6311fb6,66a626ef09d4e21e1a8894ec,6734e04085a487704a4dbc87,2024-11-13_11h26.05.767,Tarea de género gramatical,2024.2.2,Win32,30.03003003,,,,,,,,,,,,,,,,,,,,,,,,102.4933,103.7574,l,1,0.5674,,[],[],[],[],[],[],[],0.5674,1,103.7576,104.258,0,13,13,12,1,2013,MAS,AGR,150,acero,el,l,,,,,,,,,,,,,,,,,,
,,,,,,f586470b3f0b1890e6311fb6,66a626ef09d4e21e1a8894ec,6734e04085a487704a4dbc87,2024-11-13_11h26.05.767,Tarea de género gramatical,2024.2.2,Win32,30.03003003,,,,,,,,,,,,,,,,,,,,,,,,104.26,105.658,l,1,0.7009,,[],[],[],[],[],[],[],0.7009,1,105.6582,106.158,0,14,14,13,1,2014,MAS,CON,150,siglo,,l,,,,,,,,,,,,,,,,,,
,,,,,,f586470b3f0b1890e6311fb6,66a626ef09d4e21e1a8894ec,6734e04085a487704a4dbc87,2024-11-13_11h26.05.767,Tarea de género gramatical,2024.2.2,Win32,30.03003003,,,108.864,114.1919,space,-0.01171875,-0.348632813,0,0,0,,,,,,,,,,,,5.2969,,114.2911,115.5587,l,1,0.575,,[],[],[],[],[],[],[],0.575,1,115.5589,116.0588,,,,,,899,MAS,DIS,150,payaso,la,l,116.0595,116.0694,-0.01171875,-0.348632813,0,0,0,,0,0,0,448,1,,,,,
,,,,,,f586470b3f0b1890e6311fb6,66a626ef09d4e21e1a8894ec,6734e04085a487704a4dbc87,2024-11-13_11h26.05.767,Tarea de género gramatical,2024.2.2,Win32,30.03003003,,,,,,,,,,,,,,,,,,,,,,,,116.0734,117.2918,a,1,0.5366,,[],[],[],[],[],[],[],0.5366,1,117.2921,117.7917,,,,,,693,FEM,AGR,150,salsa,la,a,117.7918,117.7921,-0.01171875,-0.348632813,0,0,0,,0,1,1,242,1,,,,,
,,,,,,f586470b3f0b1890e6311fb6,66a626ef09d4e21e1a8894ec,6734e04085a487704a4dbc87,2024-11-13_11h26.05.767,Tarea de género gramatical,2024.2.2,Win32,30.03003003,,,,,,,,,,,,,,,,,,,,,,,,117.7941,119.0256,a,1,0.5539,,[],[],[],[],[],[],[],0.5539,1,119.0257,119.5255,,,,,,769,FEM,CON,150,sangre,,a,119.529,119.531,-0.01171875,-0.348632813,0,0,0,,0,2,2,318,1,,,,,
,,,,,,f586470b3f0b1890e6311fb6,66a626ef09d4e21e1a8894ec,6734e04085a487704a4dbc87,2024-11-13_11h26.05.767,Tarea de género gramatical,2024.2.2,Win32,30.03003003,,,,,,,,,,,,,,,,,,,,,,,,119.5327,120.7923,l,1,0.5732,,[],[],[],[],[],[],[],0.5732,1,120.7924,121.292,,,,,,762,MAS,AGR,150,equipo,el,l,121.2922,121.2926,-0.010742188,-0.34765625,0,0,0,,0,3,3,311,1,,,,,
,,,,,,f586470b3f0b1890e6311fb6,66a626ef09d4e21e1a8894ec,6734e04085a487704a4dbc87,2024-11-13_11h26.05.767,Tarea de género gramatical,2024.2.2,Win32,30.03003003,,,,,,,,,,,,,,,,,,,,,,,,121.2947,122.8592,l,1,0.8726,,[],[],[],[],[],[],[],0.8726,1,122.8595,123.3586,,,,,,526,MAS,CON,150,lujo,,l,123.3587,123.3589,-0.010742188,-0.34765625,0,0,0,,0,4,4,75,1,,,,,
,,,,,,f586470b3f0b1890e6311fb6,66a626ef09d4e21e1a8894ec,6734e04085a487704a4dbc87,2024-11-13_11h26.05.767,Tarea de género gramatical,2024.2.2,Win32,30.03003003,,,,,,,,,,,,,,,,,,,,,,,,123.3609,124.7586,a,1,0.7014,,[],[],[],[],[],[],[],0.7014,1,124.7588,125.2589,,,,,,572,FEM,DIS,150,loca,el,a,125.2589,125.2594,-0.010742188,-0.34765625,0,0,0,,0,5,5,121,1,,,,,
,,,,,,f586470b3f0b1890e6311fb6,66a626ef09d4e21e1a8894ec,6734e04085a487704a4dbc87,2024-11-13_11h26.05.767,Tarea de género gramatical,2024.2.2,Win32,30.03003003,,,,,,,,,,,,,,,,,,,,,,,,125.263,126.4592,a,1,0.5087,,[],[],[],[],[],[],[],0.5087,1,126.4594,126.959,,,,,,873,FEM,AGR,150,poesía,la,a,126.963,126.9644,-0.010742188,-0.34765625,0,0,0,,0,6,6,422,1,,,,,
,,,,,,f586470b3f0b1890e6311fb6,66a626ef09d4e21e1a8894ec,6734e04085a487704a4dbc87,2024-11-13_11h26.05.767,Tarea de género gramatical,2024.2.2,Win32,30.03003003,,,,,,,,,,,,,,,,,,,,,,,,126.9659,128.0928,l,1,0.4424,,[],[],[],[],[],[],[],0.4424,1,128.0929,128.5925,,,,,,737,MAS,DIS,150,plato,la,l,128.5926,128.5929,-0.010742188,-0.34765625,0,0,0,,0,7,7,286,1,,,,,
,,,,,,f586470b3f0b1890e6311fb6,66a626ef09d4e21e1a8894ec,6734e04085a487704a4dbc87,2024-11-13_11h26.05.767,Tarea de género gramatical,2024.2.2,Win32,30.03003003,,,,,,,,,,,,,,,,,,,,,,,,128.5958,129.8594,a,1,0.589,,[],[],[],[],[],[],[],0.589,1,129.8595,130.3595,,,,,,585,FEM,AGR,150,raíz,la,a,130.3596,130.36,-0.010742188,-0.34765625,0,0,0,,0,8,8,134,1,,,,,
,,,,,,f586470b3f0b1890e6311fb6,66a626ef09d4e21e1a8894ec,6734e04085a487704a4dbc87,2024-11-13_11h26.05.767,Tarea de género gramatical,2024.2.2,Win32,30.03003003,,,,,,,,,,,,,,,,,,,,,,,,130.3618,131.5593,a,1,0.502,,[],[],[],[],[],[],[],0.502,1,131.5596,132.0593,,,,,,823,FEM,CON,150,lluvia,,a,132.0594,132.0598,-0.010742188,-0.34765625,0,0,0,,0,9,9,372,1,,,,,
,,,,,,f586470b3f0b1890e6311fb6,66a626ef09d4e21e1a8894ec,6734e04085a487704a4dbc87,2024-11-13_11h26.05.767,Tarea de género gramatical,2024.2.2,Win32,30.03003003,,,,,,,,,,,,,,,,,,,,,,,,132.0618,133.1928,a,1,0.4584,,[],[],[],[],[],[],[],0.4584,1,133.1929,133.6929,,,,,,613,FEM,CON,150,calle,,a,133.6929,133.6932,-0.010742188,-0.34765625,0,0,0,,0,10,10,162,1,,,,,
,,,,,,f586470b3f0b1890e6311fb6,66a626ef09d4e21e1a8894ec,6734e04085a487704a4dbc87,2024-11-13_11h26.05.767,Tarea de género gramatical,2024.2.2,Win32,30.03003003,,,,,,,,,,,,,,,,,,,,,,,,133.6949,134.793,a,1,0.4008,,[],[],[],[],[],[],[],0.4008,1,134.7932,135.2924,,,,,,789,FEM,AGR,150,salida,la,a,135.2942,135.2953,-0.010742188,-0.34765625,0,0,0,,0,11,11,338,1,,,,,
,,,,,,f586470b3f0b1890e6311fb6,66a626ef09d4e21e1a8894ec,6734e04085a487704a4dbc87,2024-11-13_11h26.05.767,Tarea de género gramatical,2024.2.2,Win32,30.03003003,,,,,,,,,,,,,,,,,,,,,,,,135.2961,136.4265,a,1,0.4352,,[],[],[],[],[],[],[],0.4352,1,136.4267,136.9262,,,,,,559,FEM,CON,150,gota,,a,136.9263,136.9265,-0.010742188,-0.34765625,0,0,0,,0,12,12,108,1,,,,,
,,,,,,f586470b3f0b1890e6311fb6,66a626ef09d4e21e1a8894ec,6734e04085a487704a4dbc87,2024-11-13_11h26.05.767,Tarea de género gramatical,2024.2.2,Win32,30.03003003,,,,,,,,,,,,,,,,,,,,,,,,136.9285,138.126,a,1,0.5009,,[],[],[],[],[],[],[],0.5009,1,138.1262,138.6264,,,,,,495,FEM,AGR,150,isla,la,a,138.6265,138.6267,-0.009765625,-0.34765625,0,0,0,,0,13,13,44,1,,,,,
,,,,,,f586470b3f0b1890e6311fb6,66a626ef09d4e21e1a8894ec,6734e04085a487704a4dbc87,2024-11-13_11h26.05.767,Tarea de género gramatical,2024.2.2,Win32,30.03003003,,,,,,,,,,,,,,,,,,,,,,,,138.6305,139.8264,l,1,0.5019,,[],[],[],[],[],[],[],0.5019,1,139.8267,140.3265,,,,,,750,MAS,AGR,150,túnel,el,l,140.3266,140.3268,-0.009765625,-0.34765625,0,0,0,,0,14,14,299,1,,,,,
,,,,,,f586470b3f0b1890e6311fb6,66a626ef09d4e21e1a8894ec,6734e04085a487704a4dbc87,2024-11-13_11h26.05.767,Tarea de género gramatical,2024.2.2,Win32,30.03003003,,,,,,,,,,,,,,,,,,,,,,,,140.3287,141.4264,a,1,0.4059,,[],[],[],[],[],[],[],0.4059,1,141.4265,141.9266,,,,,,777,FEM,AGR,150,tienda,la,a,141.9297,141.9315,-0.010742188,-0.342773438,0,0,0,,0,15,15,326,1,,,,,
,,,,,,f586470b3f0b1890e6311fb6,66a626ef09d4e21e1a8894ec,6734e04085a487704a4dbc87,2024-11-13_11h26.05.767,Tarea de género gramatical,2024.2.2,Win32,30.03003003,,,,,,,,,,,,,,,,,,,,,,,,141.9336,143.1266,a,1,0.5233,,[],[],[],[],[],[],[],0.5233,1,143.1267,143.6267,,,,,,697,FEM,CON,150,frase,,a,143.6268,143.627,-0.010742188,-0.342773438,0,0,0,,0,16,16,246,1,,,,,
,,,,,,f586470b3f0b1890e6311fb6,66a626ef09d4e21e1a8894ec,6734e04085a487704a4dbc87,2024-11-13_11h26.05.767,Tarea de género gramatical,2024.2.2,Win32,30.03003003,,,,,,,,,,,,,,,,,,,,,,,,143.6291,144.7599,a,1,0.4325,,[],[],[],[],[],[],[],0.4325,1,144.7601,145.26,,,,,,771,FEM,AGR,150,comida,la,a,145.2601,145.2603,-0.010742188,-0.342773438,0,0,0,,0,17,17,320,1,,,,,
,,,,,,f586470b3f0b1890e6311fb6,66a626ef09d4e21e1a8894ec,6734e04085a487704a4dbc87,2024-11-13_11h26.05.767,Tarea de género gramatical,2024.2.2,Win32,30.03003003,,,,,,,,,,,,,,,,,,,,,,,,145.2624,146.3265,a,1,0.3735,,[],[],[],[],[],[],[],0.3735,1,146.3267,146.8272,,,,,,452,FEM,DIS,150,vida,el,a,146.8273,146.8275,-0.010742188,-0.342773438,0,0,0,,0,18,18,1,1,,,,,
,,,,,,f586470b3f0b1890e6311fb6,66a626ef09d4e21e1a8894ec,6734e04085a487704a4dbc87,2024-11-13_11h26.05.767,Tarea de género gramatical,2024.2.2,Win32,30.03003003,,,,,,,,,,,,,,,,,,,,,,,,146.8306,147.9266,a,1,0.4119,,[],[],[],[],[],[],[],0.4119,1,147.9268,148.4269,,,,,,463,FEM,CON,150,hija,,a,148.427,148.4272,-0.010742188,-0.342773438,0,0,0,,0,19,19,12,1,,,,,
,,,,,,f586470b3f0b1890e6311fb6,66a626ef09d4e21e1a8894ec,6734e04085a487704a4dbc87,2024-11-13_11h26.05.767,Tarea de género gramatical,2024.2.2,Win32,30.03003003,,,,,,,,,,,,,,,,,,,,,,,,148.4301,149.4271,a,1,0.3153,,[],[],[],[],[],[],[],0.3153,1,149.4273,149.9271,,,,,,469,FEM,CON,150,niña,,a,149.9304,149.9324,-0.010742188,-0.342773438,0,0,0,,0,20,20,18,1,,,,,
,,,,,,f586470b3f0b1890e6311fb6,66a626ef09d4e21e1a8894ec,6734e04085a487704a4dbc87,2024-11-13_11h26.05.767,Tarea de género gramatical,2024.2.2,Win32,30.03003003,,,,,,,,,,,,,,,,,,,,,,,,149.9338,151.227,l,1,0.6059,,[],[],[],[],[],[],[],0.6059,1,151.2271,151.7274,,,,,,677,MAS,DIS,150,vuelo,la,l,151.7274,151.7275,-0.010742188,-0.342773438,0,0,0,,0,21,21,226,1,,,,,
,,,,,,f586470b3f0b1890e6311fb6,66a626ef09d4e21e1a8894ec,6734e04085a487704a4dbc87,2024-11-13_11h26.05.767,Tarea de género gramatical,2024.2.2,Win32,30.03003003,,,,,,,,,,,,,,,,,,,,,,,,151.7299,152.8937,a,1,0.4738,,[],[],[],[],[],[],[],0.4738,1,152.8938,153.3935,,,,,,848,FEM,DIS,150,hierba,el,a,153.3937,153.3939,-0.010742188,-0.34375,0,0,0,,0,22,22,397,1,,,,,
,,,,,,f586470b3f0b1890e6311fb6,66a626ef09d4e21e1a8894ec,6734e04085a487704a4dbc87,2024-11-13_11h26.05.767,Tarea de género gramatical,2024.2.2,Win32,30.03003003,,,,,,,,,,,,,,,,,,,,,,,,153.3973,154.6941,l,1,0.6128,,[],[],[],[],[],[],[],0.6128,1,154.6943,155.1943,,,,,,882,MAS,AGR,150,océano,el,l,155.1944,155.1947,-0.010742188,-0.34375,0,0,0,,0,23,23,431,1,,,,,
,,,,,,f586470b3f0b1890e6311fb6,66a626ef09d4e21e1a8894ec,6734e04085a487704a4dbc87,2024-11-13_11h26.05.767,Tarea de género gramatical,2024.2.2,Win32,30.03003003,,,,,,,,,,,,,,,,,,,,,,,,155.1968,156.5938,a,0,0.719,,[],[],[],[],[],[],[],0.719,0,156.5955,157.0939,,,,,,670,MAS,CON,150,huevo,,l,157.0973,157.0992,-0.010742188,-0.34375,0,0,0,,0,24,24,219,1,,,,,
,,,,,,f586470b3f0b1890e6311fb6,66a626ef09d4e21e1a8894ec,6734e04085a487704a4dbc87,2024-11-13_11h26.05.767,Tarea de género gramatical,2024.2.2,Win32,30.03003003,,,,,,,,,,,,,,,,,,,,,,,,157.1008,158.4944,a,1,0.7067,,[],[],[],[],[],[],[],0.7067,1,158.496,158.9939,,,,,,867,FEM,AGR,150,cabaña,la,a,158.994,158.9942,-0.010742188,-0.34375,0,0,0,,0,25,25,416,1,,,,,
,,,,,,f586470b3f0b1890e6311fb6,66a626ef09d4e21e1a8894ec,6734e04085a487704a4dbc87,2024-11-13_11h26.05.767,Tarea de género gramatical,2024.2.2,Win32,30.03003003,,,,,,,,,,,,,,,,,,,,,,,,158.9964,160.2277,a,1,0.5399,,[],[],[],[],[],[],[],0.5399,1,160.2279,160.7274,,,,,,639,FEM,AGR,150,pista,la,a,160.7276,160.7277,-0.010742188,-0.34375,0,0,0,,0,26,26,188,1,,,,,
,,,,,,f586470b3f0b1890e6311fb6,66a626ef09d4e21e1a8894ec,6734e04085a487704a4dbc87,2024-11-13_11h26.05.767,Tarea de género gramatical,2024.2.2,Win32,30.03003003,,,,,,,,,,,,,,,,,,,,,,,,160.7298,162.1942,a,1,0.7712,,[],[],[],[],[],[],[],0.7712,1,162.1944,162.6949,,,,,,470,FEM,DIS,150,ropa,el,a,162.6949,162.6952,-0.010742188,-0.34375,0,0,0,,0,27,27,19,1,,,,,
,,,,,,f586470b3f0b1890e6311fb6,66a626ef09d4e21e1a8894ec,6734e04085a487704a4dbc87,2024-11-13_11h26.05.767,Tarea de género gramatical,2024.2.2,Win32,30.03003003,,,,,,,,,,,,,,,,,,,,,,,,162.6987,163.9607,l,1,0.5806,,[],[],[],[],[],[],[],0.5806,1,163.9609,164.4617,,,,,,868,MAS,CON,150,pájaro,,l,164.4617,164.462,-0.010742188,-0.34375,0,0,0,,0,28,28,417,1,,,,,
,,,,,,f586470b3f0b1890e6311fb6,66a626ef09d4e21e1a8894ec,6734e04085a487704a4dbc87,2024-11-13_11h26.05.767,Tarea de género gramatical,2024.2.2,Win32,30.03003003,,,,,,,,,,,,,,,,,,,,,,,,164.4639,165.6281,l,1,0.4812,,[],[],[],[],[],[],[],0.4812,1,165.6283,166.1282,,,,,,724,MAS,CON,150,motor,,l,166.1325,166.1339,-0.010742188,-0.34375,0,0,0,,0,29,29,273,1,,,,,
,,,,,,f586470b3f0b1890e6311fb6,66a626ef09d4e21e1a8894ec,6734e04085a487704a4dbc87,2024-11-13_11h26.05.767,Tarea de género gramatical,2024.2.2,Win32,30.03003003,,,,,,,,,,,,,,,,,,,,,,,,166.1353,167.5279,l,1,0.7216,,[],[],[],[],[],[],[],0.7216,1,167.528,168.0282,,,,,,660,MAS,AGR,150,baile,el,l,168.0283,168.0285,-0.010742188,-0.34375,0,0,0,,0,30,30,209,1,,,,,
,,,,,,f586470b3f0b1890e6311fb6,66a626ef09d4e21e1a8894ec,6734e04085a487704a4dbc87,2024-11-13_11h26.05.767,Tarea de género gramatical,2024.2.2,Win32,30.03003003,,,,,,,,,,,,,,,,,,,,,,,,168.0307,169.2279,a,1,0.5007,,[],[],[],[],[],[],[],0.5007,1,169.228,169.7284,,,,,,717,FEM,AGR,150,barba,la,a,169.7286,169.7288,-0.010742188,-0.34375,0,0,0,,0,31,31,266,1,,,,,
,,,,,,f586470b3f0b1890e6311fb6,66a626ef09d4e21e1a8894ec,6734e04085a487704a4dbc87,2024-11-13_11h26.05.767,Tarea de género gramatical,2024.2.2,Win32,30.03003003,,,,,,,,,,,,,,,,,,,,,,,,169.7309,170.9612,a,1,0.5344,,[],[],[],[],[],[],[],0.5344,1,170.9613,171.4616,,,,,,831,FEM,AGR,150,bebida,la,a,171.4618,171.4619,-0.010742188,-0.34375,0,0,0,,0,32,32,380,1,,,,,
,,,,,,f586470b3f0b1890e6311fb6,66a626ef09d4e21e1a8894ec,6734e04085a487704a4dbc87,2024-11-13_11h26.05.767,Tarea de género gramatical,2024.2.2,Win32,30.03003003,,,,,,,,,,,,,,,,,,,,,,,,171.4638,172.7613,a,1,0.623,,[],[],[],[],[],[],[],0.623,1,172.7614,173.2619,,,,,,517,FEM,CON,150,miel,,a,173.2652,173.2669,-0.010742188,-0.34375,0,0,0,,0,33,33,66,1,,,,,
,,,,,,f586470b3f0b1890e6311fb6,66a626ef09d4e21e1a8894ec,6734e04085a487704a4dbc87,2024-11-13_11h26.05.767,Tarea de género gramatical,2024.2.2,Win32,30.03003003,,,,,,,,,,,,,,,,,,,,,,,,173.2682,174.4952,l,1,0.5424,,[],[],[],[],[],[],[],0.5424,1,174.4954,174.9947,,,,,,694,MAS,CON,150,hielo,,l,174.9949,174.995,-0.010742188,-0.34375,0,0,0,,0,34,34,243,1,,,,,
,,,,,,f586470b3f0b1890e6311fb6,66a626ef09d4e21e1a8894ec,6734e04085a487704a4dbc87,2024-11-13_11h26.05.767,Tarea de género gramatical,2024.2.2,Win32,30.03003003,,,,,,,,,,,,,,,,,,,,,,,,174.9991,176.3287,l,1,0.6404,,[],[],[],[],[],[],[],0.6404,1,176.3289,176.8286,,,,,,456,MAS,AGR,150,lado,el,l,176.8287,176.8288,-0.010742188,-0.34375,0,0,0,,0,35,35,5,1,,,,,
,,,,,,f586470b3f0b1890e6311fb6,66a626ef09d4e21e1a8894ec,6734e04085a487704a4dbc87,2024-11-13_11h26.05.767,Tarea de género gramatical,2024.2.2,Win32,30.03003003,,,,,,,,,,,,,,,,,,,,,,,,176.8314,178.0285,l,1,0.5195,,[],[],[],[],[],[],[],0.5195,1,178.0287,178.5289,,,,,,870,MAS,AGR,150,helado,el,l,178.5289,178.5293,-0.010742188,-0.34375,0,0,0,,0,36,36,419,1,,,,,
,,,,,,f586470b3f0b1890e6311fb6,66a626ef09d4e21e1a8894ec,6734e04085a487704a4dbc87,2024-11-13_11h26.05.767,Tarea de género gramatical,2024.2.2,Win32,30.03003003,,,,,,,,,,,,,,,,,,,,,,,,178.5311,179.8623,l,1,0.6546,,[],[],[],[],[],[],[],0.6546,1,179.8625,180.3618,,,,,,606,MAS,AGR,150,amigo,el,l,180.362,180.362,-0.010742188,-0.34375,0,0,0,,0,37,37,155,1,,,,,
,,,,,,f586470b3f0b1890e6311fb6,66a626ef09d4e21e1a8894ec,6734e04085a487704a4dbc87,2024-11-13_11h26.05.767,Tarea de género gramatical,2024.2.2,Win32,30.03003003,,,,,,,,,,,,,,,,,,,,,,,,180.3645,181.6285,a,1,0.5679,,[],[],[],[],[],[],[],0.5679,1,181.6288,182.1292,,,,,,885,FEM,AGR,150,niebla,la,a,182.1333,182.1347,-0.010742188,-0.34375,0,0,0,,0,38,38,434,1,,,,,
,,,,,,f586470b3f0b1890e6311fb6,66a626ef09d4e21e1a8894ec,6734e04085a487704a4dbc87,2024-11-13_11h26.05.767,Tarea de género gramatical,2024.2.2,Win32,30.03003003,,,,,,,,,,,,,,,,,,,,,,,,182.136,183.5292,l,1,0.7016,,[],[],[],[],[],[],[],0.7016,1,183.5293,184.0292,,,,,,900,MAS,AGR,150,conejo,el,l,184.0293,184.0295,-0.010742188,-0.34375,0,0,0,,0,39,39,449,1,,,,,
,,,,,,f586470b3f0b1890e6311fb6,66a626ef09d4e21e1a8894ec,6734e04085a487704a4dbc87,2024-11-13_11h26.05.767,Tarea de género gramatical,2024.2.2,Win32,30.03003003,,,,,,,,,,,,,,,,,,,,,,,,184.0321,185.6292,l,1,0.9066,,[],[],[],[],[],[],[],0.9066,1,185.6294,186.1294,,,,,,683,MAS,DIS,150,golpe,la,l,186.1295,186.1297,-0.010742188,-0.34375,0,0,0,,0,40,40,232,1,,,,,
,,,,,,f586470b3f0b1890e6311fb6,66a626ef09d4e21e1a8894ec,6734e04085a487704a4dbc87,2024-11-13_11h26.05.767,Tarea de género gramatical,2024.2.2,Win32,30.03003003,,,,,,,,,,,,,,,,,,,,,,,,186.1317,187.5289,l,1,0.715,,[],[],[],[],[],[],[],0.715,1,187.5291,188.0293,,,,,,898,MAS,CON,150,aceite,,l,188.0294,188.0296,-0.010742188,-0.34375,0,0,0,,0,41,41,447,1,,,,,
,,,,,,f586470b3f0b1890e6311fb6,66a626ef09d4e21e1a8894ec,6734e04085a487704a4dbc87,2024-11-13_11h26.05.767,Tarea de género gramatical,2024.2.2,Win32,30.03003003,,,,,,,,,,,,,,,,,,,,,,,,188.0323,189.196,l,1,0.467,,[],[],[],[],[],[],[],0.467,1,189.1963,189.6958,,,,,,611,MAS,DIS,150,chico,la,l,189.6985,189.7005,-0.010742188,-0.34375,0,0,0,,0,42,42,160,1,,,,,
,,,,,,f586470b3f0b1890e6311fb6,66a626ef09d4e21e1a8894ec,6734e04085a487704a4dbc87,2024-11-13_11h26.05.767,Tarea de género gramatical,2024.2.2,Win32,30.03003003,,,,,,,,,,,,,,,,,,,,,,,,189.7021,190.9292,l,1,0.5531,,[],[],[],[],[],[],[],0.5531,1,190.9294,191.4292,,,,,,557,MAS,DIS,150,cubo,la,l,191.4293,191.4296,-0.010742188,-0.34375,0,0,0,,0,43,43,106,1,,,,,
,,,,,,f586470b3f0b1890e6311fb6,66a626ef09d4e21e1a8894ec,6734e04085a487704a4dbc87,2024-11-13_11h26.05.767,Tarea de género gramatical,2024.2.2,Win32,30.03003003,,,,,,,,,,,,,,,,,,,,,,,,191.4312,192.5629,l,1,0.4464,,[],[],[],[],[],[],[],0.4464,1,192.5631,193.063,,,,,,760,MAS,CON,150,nombre,,l,193.0631,193.0632,-0.010742188,-0.34375,0,0,0,,0,44,44,309,1,,,,,
,,,,,,f586470b3f0b1890e6311fb6,66a626ef09d4e21e1a8894ec,6734e04085a487704a4dbc87,2024-11-13_11h26.05.767,Tarea de género gramatical,2024.2.2,Win32,30.03003003,,,,,,,,,,,,,,,,,,,,,,,,193.0653,194.363,l,1,0.6105,,[],[],[],[],[],[],[],0.6105,1,194.3633,194.8629,,,,,,574,MAS,CON,150,clan,,l,194.863,194.8631,-0.010742188,-0.34375,0,0,0,,0,45,45,123,1,,,,,
,,,,,,f586470b3f0b1890e6311fb6,66a626ef09d4e21e1a8894ec,6734e04085a487704a4dbc87,2024-11-13_11h26.05.767,Tarea de género gramatical,2024.2.2,Win32,30.03003003,,,,,,,,,,,,,,,,,,,,,,,,194.8653,195.9296,l,1,0.3679,,[],[],[],[],[],[],[],0.3679,1,195.9298,196.43,,,,,,521,MAS,DIS,150,pozo,la,l,196.43,196.4302,-0.010742188,-0.34375,0,0,0,,0,46,46,70,1,,,,,
,,,,,,f586470b3f0b1890e6311fb6,66a626ef09d4e21e1a8894ec,6734e04085a487704a4dbc87,2024-11-13_11h26.05.767,Tarea de género gramatical,2024.2.2,Win32,30.03003003,,,,,,,,,,,,,,,,,,,,,,,,196.4323,197.9297,a,1,0.812,,[],[],[],[],[],[],[],0.812,1,197.9299,198.4298,,,,,,843,FEM,AGR,150,alarma,la,a,198.4323,198.4347,-0.010742188,-0.34375,0,0,0,,0,47,47,392,1,,,,,
,,,,,,f586470b3f0b1890e6311fb6,66a626ef09d4e21e1a8894ec,6734e04085a487704a4dbc87,2024-11-13_11h26.05.767,Tarea de género gramatical,2024.2.2,Win32,30.03003003,,,,,,,,,,,,,,,,,,,,,,,,198.4362,199.5624,a,1,0.4524,,[],[],[],[],[],[],[],0.4524,1,199.5625,200.063,,,,,,763,FEM,CON,150,ciudad,,a,200.0631,200.0633,-0.010742188,-0.34375,0,0,0,,0,48,48,312,1,,,,,
,,,,,,f586470b3f0b1890e6311fb6,66a626ef09d4e21e1a8894ec,6734e04085a487704a4dbc87,2024-11-13_11h26.05.767,Tarea de género gramatical,2024.2.2,Win32,30.03003003,,,,,,,,,,,,,,,,,,,,,,,,200.0654,201.3638,a,1,0.6005,,[],[],[],[],[],[],[],0.6005,1,201.3639,201.8635,,,,,,705,FEM,AGR,150,tribu,la,a,201.8636,201.8638,-0.010742188,-0.34375,0,0,0,,0,49,49,254,1,,,,,
,,,,,,f586470b3f0b1890e6311fb6,66a626ef09d4e21e1a8894ec,6734e04085a487704a4dbc87,2024-11-13_11h26.05.767,Tarea de género gramatical,2024.2.2,Win32,30.03003003,,,,,,,,,,,,,,,,,,,,,,,,201.8661,203.0965,l,1,0.5345,,[],[],[],[],[],[],[],0.5345,1,203.0966,203.5967,,,,,,635,MAS,DIS,150,sueño,la,l,203.5968,203.5969,-0.010742188,-0.34375,0,0,0,,0,50,50,184,1,,,,,
,,,,,,f586470b3f0b1890e6311fb6,66a626ef09d4e21e1a8894ec,6734e04085a487704a4dbc87,2024-11-13_11h26.05.767,Tarea de género gramatical,2024.2.2,Win32,30.03003003,,,,,,,,,,,,,,,,,,,,,,,,203.5991,205.1971,a,1,0.9015,,[],[],[],[],[],[],[],0.9015,1,205.1973,205.6968,,,,,,458,FEM,DIS,150,idea,el,a,205.7003,205.7025,-0.010742188,-0.34375,0,0,0,,0,51,51,7,1,,,,,
,,,,,,f586470b3f0b1890e6311fb6,66a626ef09d4e21e1a8894ec,6734e04085a487704a4dbc87,2024-11-13_11h26.05.767,Tarea de género gramatical,2024.2.2,Win32,30.03003003,,,,,,,,,,,,,,,,,,,,,,,,205.7038,206.9968,a,1,0.6052,,[],[],[],[],[],[],[],0.6052,1,206.997,207.4969,,,,,,607,FEM,CON,150,madre,,a,207.497,207.4973,-0.010742188,-0.34375,0,0,0,,0,52,52,156,1,,,,,
,,,,,,f586470b3f0b1890e6311fb6,66a626ef09d4e21e1a8894ec,6734e04085a487704a4dbc87,2024-11-13_11h26.05.767,Tarea de género gramatical,2024.2.2,Win32,30.03003003,,,,,,,,,,,,,,,,,,,,,,,,207.4997,208.8303,a,1,0.6405,,[],[],[],[],[],[],[],0.6405,1,208.8305,209.3305,,,,,,753,FEM,AGR,150,maldad,la,a,209.3306,209.3307,-0.010742188,-0.34375,0,0,0,,0,53,53,302,1,,,,,
,,,,,,f586470b3f0b1890e6311fb6,66a626ef09d4e21e1a8894ec,6734e04085a487704a4dbc87,2024-11-13_11h26.05.767,Tarea de género gramatical,2024.2.2,Win32,30.03003003,,,,,,,,,,,,,,,,,,,,,,,,209.3331,210.6308,a,1,0.6009,,[],[],[],[],[],[],[],0.6009,1,210.631,211.1302,,,,,,747,FEM,AGR,150,manta,la,a,211.1303,211.1305,-0.010742188,-0.34375,0,0,0,,0,54,54,296,1,,,,,
,,,,,,f586470b3f0b1890e6311fb6,66a626ef09d4e21e1a8894ec,6734e04085a487704a4dbc87,2024-11-13_11h26.05.767,Tarea de género gramatical,2024.2.2,Win32,30.03003003,,,,,,,,,,,,,,,,,,,,,,,,211.1326,212.4636,a,1,0.6342,,[],[],[],[],[],[],[],0.6342,1,212.4638,212.9641,,,,,,547,FEM,CON,150,capa,,a,212.9643,212.9645,-0.010742188,-0.34375,0,0,0,,0,55,55,96,1,,,,,
,,,,,,f586470b3f0b1890e6311fb6,66a626ef09d4e21e1a8894ec,6734e04085a487704a4dbc87,2024-11-13_11h26.05.767,Tarea de género gramatical,2024.2.2,Win32,30.03003003,,,,,,,,,,,,,,,,,,,,,,,,212.9666,214.1308,l,1,0.474,,[],[],[],[],[],[],[],0.474,1,214.131,214.6308,,,,,,834,MAS,AGR,150,pedazo,el,l,214.6336,214.6356,-0.010742188,-0.34375,0,0,0,,0,56,56,383,1,,,,,
,,,,,,f586470b3f0b1890e6311fb6,66a626ef09d4e21e1a8894ec,6734e04085a487704a4dbc87,2024-11-13_11h26.05.767,Tarea de género gramatical,2024.2.2,Win32,30.03003003,,,,,,,,,,,,,,,,,,,,,,,,214.637,215.8308,a,1,0.5208,,[],[],[],[],[],[],[],0.5208,1,215.8309,216.3309,,,,,,643,FEM,CON,150,bolsa,,a,216.331,216.3312,-0.010742188,-0.34375,0,0,0,,0,57,57,192,1,,,,,
,,,,,,f586470b3f0b1890e6311fb6,66a626ef09d4e21e1a8894ec,6734e04085a487704a4dbc87,2024-11-13_11h26.05.767,Tarea de género gramatical,2024.2.2,Win32,30.03003003,,,,,,,,,,,,,,,,,,,,,,,,216.3334,217.7643,a,1,0.7565,,[],[],[],[],[],[],[],0.7565,1,217.7644,218.264,,,,,,800,FEM,DIS,150,imagen,el,a,218.2642,218.2644,-0.010742188,-0.34375,0,0,0,,0,58,58,349,1,,,,,
,,,,,,f586470b3f0b1890e6311fb6,66a626ef09d4e21e1a8894ec,6734e04085a487704a4dbc87,2024-11-13_11h26.05.767,Tarea de género gramatical,2024.2.2,Win32,30.03003003,,,,,,,,,,,,,,,,,,,,,,,,218.2666,219.6977,l,1,0.7339,,[],[],[],[],[],[],[],0.7339,1,219.698,220.1979,,,,,,869,MAS,DIS,150,cuento,la,l,220.1979,220.1981,-0.010742188,-0.34375,0,0,0,,0,59,59,418,1,,,,,
,,,,,,f586470b3f0b1890e6311fb6,66a626ef09d4e21e1a8894ec,6734e04085a487704a4dbc87,2024-11-13_11h26.05.767,Tarea de género gramatical,2024.2.2,Win32,30.03003003,,,,,,,,,,,,,,,,,,,,,,,,220.2003,221.5646,l,1,0.6815,,[],[],[],[],[],[],[],0.6815,1,221.5648,222.0649,,,,,,598,MAS,CON,150,surf,,l,222.0674,222.0695,-0.010742188,-0.34375,0,0,0,,0,60,60,147,1,,,,,
,,,,,,f586470b3f0b1890e6311fb6,66a626ef09d4e21e1a8894ec,6734e04085a487704a4dbc87,2024-11-13_11h26.05.767,Tarea de género gramatical,2024.2.2,Win32,30.03003003,,,,,,,,,,,,,,,,,,,,,,,,222.0707,223.2313,l,1,0.4679,,[],[],[],[],[],[],[],0.4679,1,223.2316,223.7309,,,,,,700,MAS,CON,150,cerdo,,l,223.731,223.7312,-0.010742188,-0.338867188,0,0,0,,0,61,61,249,1,,,,,
,,,,,,f586470b3f0b1890e6311fb6,66a626ef09d4e21e1a8894ec,6734e04085a487704a4dbc87,2024-11-13_11h26.05.767,Tarea de género gramatical,2024.2.2,Win32,30.03003003,,,,,,,,,,,,,,,,,,,,,,,,223.7337,224.9314,a,1,0.5011,,[],[],[],[],[],[],[],0.5011,1,224.9316,225.4315,,,,,,861,FEM,AGR,150,actriz,la,a,225.4316,225.4317,-0.010742188,-0.338867188,0,0,0,,0,62,62,410,1,,,,,
,,,,,,f586470b3f0b1890e6311fb6,66a626ef09d4e21e1a8894ec,6734e04085a487704a4dbc87,2024-11-13_11h26.05.767,Tarea de género gramatical,2024.2.2,Win32,30.03003003,,,,,,,,,,,,,,,,,,,,,,,,225.4339,226.9643,a,1,0.8438,,[],[],[],[],[],[],[],0.8438,1,226.9646,227.4649,,,,,,488,FEM,DIS,150,obra,el,a,227.465,227.4651,-0.010742188,-0.338867188,0,0,0,,0,63,63,37,1,,,,,
,,,,,,f586470b3f0b1890e6311fb6,66a626ef09d4e21e1a8894ec,6734e04085a487704a4dbc87,2024-11-13_11h26.05.767,Tarea de género gramatical,2024.2.2,Win32,30.03003003,,,,,,,,,,,,,,,,,,,,,,,,227.468,228.5984,a,1,0.4407,,[],[],[],[],[],[],[],0.4407,1,228.5985,229.0986,,,,,,512,FEM,DIS,150,sopa,el,a,229.0987,229.0989,-0.010742188,-0.338867188,0,0,0,,0,64,64,61,1,,,,,
,,,,,,f586470b3f0b1890e6311fb6,66a626ef09d4e21e1a8894ec,6734e04085a487704a4dbc87,2024-11-13_11h26.05.767,Tarea de género gramatical,2024.2.2,Win32,30.03003003,,,,,,,,,,,,,,,,,,,,,,,,229.101,230.2984,a,1,0.5174,,[],[],[],[],[],[],[],0.5174,1,230.2986,230.7984,,,,,,879,FEM,AGR,150,fianza,la,a,230.801,230.8031,-0.010742188,-0.338867188,0,0,0,,0,65,65,428,1,,,,,
,,,,,,f586470b3f0b1890e6311fb6,66a626ef09d4e21e1a8894ec,6734e04085a487704a4dbc87,2024-11-13_11h26.05.767,Tarea de género gramatical,2024.2.2,Win32,30.03003003,,,,,,,,,,,,,,,,,,,,,,,,230.8052,232.1318,l,1,0.6498,,[],[],[],[],[],[],[],0.6498,1,232.1319,232.6318,,,,,,730,MAS,CON,150,salón,,l,232.6319,232.632,-0.010742188,-0.338867188,0,0,0,,0,66,66,279,1,,,,,
,,,,,,f586470b3f0b1890e6311fb6,66a626ef09d4e21e1a8894ec,6734e04085a487704a4dbc87,2024-11-13_11h26.05.767,Tarea de género gramatical,2024.2.2,Win32,30.03003003,,,,,,,,,,,,,,,,,,,,,,,,232.6341,233.665,l,1,0.3399,,[],[],[],[],[],[],[],0.3399,1,233.6652,234.1651,,,,,,480,MAS,AGR,150,cine,el,l,234.1652,234.1654,-0.010742188,-0.338867188,0,0,0,,0,67,67,29,1,,,,,
,,,,,,f586470b3f0b1890e6311fb6,66a626ef09d4e21e1a8894ec,6734e04085a487704a4dbc87,2024-11-13_11h26.05.767,Tarea de género gramatical,2024.2.2,Win32,30.03003003,,,,,,,,,,,,,,,,,,,,,,,,234.1672,235.4987,l,1,0.6342,,[],[],[],[],[],[],[],0.6342,1,235.4989,235.9983,,,,,,778,MAS,CON,150,asunto,,l,235.9984,235.9984,-0.010742188,-0.338867188,0,0,0,,0,68,68,327,1,,,,,
,,,,,,f586470b3f0b1890e6311fb6,66a626ef09d4e21e1a8894ec,6734e04085a487704a4dbc87,2024-11-13_11h26.05.767,Tarea de género gramatical,2024.2.2,Win32,30.03003003,,,,,,,,,,,,,,,,,,,,,,,,236.0006,237.1987,a,1,0.5132,,[],[],[],[],[],[],[],0.5132,1,237.1989,237.6987,,,,,,735,FEM,AGR,150,mafia,la,a,237.7009,237.703,-0.010742188,-0.338867188,0,0,0,,0,69,69,284,1,,,,,
,,,,,,f586470b3f0b1890e6311fb6,66a626ef09d4e21e1a8894ec,6734e04085a487704a4dbc87,2024-11-13_11h26.05.767,Tarea de género gramatical,2024.2.2,Win32,30.03003003,,,,,,,,,,,,,,,,,,,,,,,,237.7043,238.7989,a,1,0.4188,,[],[],[],[],[],[],[],0.4188,1,238.799,239.2989,,,,,,657,FEM,AGR,150,playa,la,a,239.299,239.2991,-0.010742188,-0.338867188,0,0,0,,0,70,70,206,1,,,,,
,,,,,,f586470b3f0b1890e6311fb6,66a626ef09d4e21e1a8894ec,6734e04085a487704a4dbc87,2024-11-13_11h26.05.767,Tarea de género gramatical,2024.2.2,Win32,30.03003003,,,,,,,,,,,,,,,,,,,,,,,,239.3012,240.3658,a,1,0.3722,,[],[],[],[],[],[],[],0.3722,1,240.3659,240.8657,,,,,,489,FEM,AGR,150,luna,la,a,240.8659,240.866,-0.010742188,-0.338867188,0,0,0,,0,71,71,38,1,,,,,
,,,,,,f586470b3f0b1890e6311fb6,66a626ef09d4e21e1a8894ec,6734e04085a487704a4dbc87,2024-11-13_11h26.05.767,Tarea de género gramatical,2024.2.2,Win32,30.03003003,,,,,,,,,,,,,,,,,,,,,,,,240.8689,242.1327,l,1,0.5773,,[],[],[],[],[],[],[],0.5773,1,242.1329,242.632,,,,,,474,MAS,AGR,150,voto,el,l,242.6322,242.6323,-0.010742188,-0.338867188,0,0,0,,0,72,72,23,1,,,,,
,,,,,,f586470b3f0b1890e6311fb6,66a626ef09d4e21e1a8894ec,6734e04085a487704a4dbc87,2024-11-13_11h26.05.767,Tarea de género gramatical,2024.2.2,Win32,30.03003003,,,,,,,,,,,,,,,,,,,,,,,,242.6343,243.9987,a,1,0.6684,,[],[],[],[],[],[],[],0.6684,1,243.999,244.4993,,,,,,591,FEM,AGR,150,cera,la,a,244.4993,244.4995,-0.010742188,-0.338867188,0,0,0,,0,73,73,140,1,,,,,
,,,,,,f586470b3f0b1890e6311fb6,66a626ef09d4e21e1a8894ec,6734e04085a487704a4dbc87,2024-11-13_11h26.05.767,Tarea de género gramatical,2024.2.2,Win32,30.03003003,,,,,,,,,,,,,,,,,,,,,,,,244.5017,245.7659,l,1,0.5742,,[],[],[],[],[],[],[],0.5742,1,245.766,246.2661,,,,,,623,MAS,DIS,150,libro,la,l,246.2688,246.2707,-0.010742188,-0.338867188,0,0,0,,0,74,74,172,1,,,,,
,,,,,,f586470b3f0b1890e6311fb6,66a626ef09d4e21e1a8894ec,6734e04085a487704a4dbc87,2024-11-13_11h26.05.767,Tarea de género gramatical,2024.2.2,Win32,30.03003003,,,,,,,,,,,,,,,,,,,,,,,,246.2721,247.6993,a,1,0.7528,,[],[],[],[],[],[],[],0.7528,1,247.6995,248.1994,,,,,,686,FEM,DIS,150,deuda,el,a,248.1996,248.1997,-0.010742188,-0.338867188,0,0,0,,0,75,75,235,1,,,,,
,,,,,,f586470b3f0b1890e6311fb6,66a626ef09d4e21e1a8894ec,6734e04085a487704a4dbc87,2024-11-13_11h26.05.767,Tarea de género gramatical,2024.2.2,Win32,30.03003003,,,,,,,,,,,,,,,,,,,,,,,,248.2021,249.633,a,1,0.7386,,[],[],[],[],[],[],[],0.7386,1,249.6331,250.1324,,,,,,787,FEM,CON,150,escena,,a,250.1326,250.1327,-0.010742188,-0.338867188,0,0,0,,0,76,76,336,1,,,,,
,,,,,,f586470b3f0b1890e6311fb6,66a626ef09d4e21e1a8894ec,6734e04085a487704a4dbc87,2024-11-13_11h26.05.767,Tarea de género gramatical,2024.2.2,Win32,30.03003003,,,,,,,,,,,,,,,,,,,,,,,,250.1347,251.333,a,1,0.5012,,[],[],[],[],[],[],[],0.5012,1,251.3331,251.833,,,,,,499,FEM,CON,150,piel,,a,251.8331,251.8333,-0.010742188,-0.338867188,0,0,0,,0,77,77,48,1,,,,,
,,,,,,f586470b3f0b1890e6311fb6,66a626ef09d4e21e1a8894ec,6734e04085a487704a4dbc87,2024-11-13_11h26.05.767,Tarea de género gramatical,2024.2.2,Win32,30.03003003,,,,,,,,,,,,,,,,,,,,,,,,251.8354,252.9998,l,1,0.4672,,[],[],[],[],[],[],[],0.4672,1,252.9999,253.4998,,,,,,809,MAS,DIS,150,bosque,la,l,253.5024,253.5046,-0.010742188,-0.338867188,0,0,0,,0,78,78,358,1,,,,,
,,,,,,f586470b3f0b1890e6311fb6,66a626ef09d4e21e1a8894ec,6734e04085a487704a4dbc87,2024-11-13_11h26.05.767,Tarea de género gramatical,2024.2.2,Win32,30.03003003,,,,,,,,,,,,,,,,,,,,,,,,253.5059,254.8665,a,1,0.6676,,[],[],[],[],[],[],[],0.6676,1,254.8667,255.3665,,,,,,765,FEM,AGR,150,manera,la,a,255.3666,255.3667,-0.010742188,-0.338867188,0,0,0,,0,79,79,314,1,,,,,
,,,,,,f586470b3f0b1890e6311fb6,66a626ef09d4e21e1a8894ec,6734e04085a487704a4dbc87,2024-11-13_11h26.05.767,Tarea de género gramatical,2024.2.2,Win32,30.03003003,,,,,,,,,,,,,,,,,,,,,,,,255.3689,256.6997,a,1,0.641,,[],[],[],[],[],[],[],0.641,1,256.6999,257.2001,,,,,,668,FEM,DIS,150,nieve,el,a,257.2001,257.2003,-0.010742188,-0.338867188,0,0,0,,0,80,80,217,1,,,,,
,,,,,,f586470b3f0b1890e6311fb6,66a626ef09d4e21e1a8894ec,6734e04085a487704a4dbc87,2024-11-13_11h26.05.767,Tarea de género gramatical,2024.2.2,Win32,30.03003003,,,,,,,,,,,,,,,,,,,,,,,,257.2022,258.4333,a,1,0.5541,,[],[],[],[],[],[],[],0.5541,1,258.4335,258.9328,,,,,,481,FEM,CON,150,edad,,a,258.9328,258.9331,-0.010742188,-0.338867188,0,0,0,,0,81,81,30,1,,,,,
,,,,,,f586470b3f0b1890e6311fb6,66a626ef09d4e21e1a8894ec,6734e04085a487704a4dbc87,2024-11-13_11h26.05.767,Tarea de género gramatical,2024.2.2,Win32,30.03003003,,,,,,,,,,,,,,,,,,,,,,,,258.9357,260.1002,a,1,0.4672,,[],[],[],[],[],[],[],0.4672,1,260.1006,260.6003,,,,,,614,FEM,DIS,150,novia,el,a,260.6005,260.6007,-0.010742188,-0.338867188,0,0,0,,0,82,82,163,1,,,,,
,,,,,,f586470b3f0b1890e6311fb6,66a626ef09d4e21e1a8894ec,6734e04085a487704a4dbc87,2024-11-13_11h26.05.767,Tarea de género gramatical,2024.2.2,Win32,30.03003003,,,,,,,,,,,,,,,,,,,,,,,,260.6032,261.8334,l,1,0.5494,,[],[],[],[],[],[],[],0.5494,1,261.8336,262.3334,,,,,,540,MAS,AGR,150,león,el,l,262.336,262.3383,-0.010742188,-0.338867188,0,0,0,,0,83,83,89,1,,,,,
,,,,,,f586470b3f0b1890e6311fb6,66a626ef09d4e21e1a8894ec,6734e04085a487704a4dbc87,2024-11-13_11h26.05.767,Tarea de género gramatical,2024.2.2,Win32,30.03003003,,,,,,,,,,,,,,,,,,,,,,,,262.3394,263.5002,l,1,0.4715,,[],[],[],[],[],[],[],0.4715,1,263.5004,264.0004,,,,,,454,MAS,CON,150,hijo,,l,264.0005,264.0007,-0.010742188,-0.338867188,0,0,0,,0,84,84,3,1,,,,,
,,,,,,f586470b3f0b1890e6311fb6,66a626ef09d4e21e1a8894ec,6734e04085a487704a4dbc87,2024-11-13_11h26.05.767,Tarea de género gramatical,2024.2.2,Win32,30.03003003,,,,,,,,,,,,,,,,,,,,,,,,264.0029,265.2004,a,1,0.506,,[],[],[],[],[],[],[],0.506,1,265.2005,265.7003,,,,,,788,FEM,DIS,150,abuela,el,a,265.7004,265.7007,-0.010742188,-0.338867188,0,0,0,,0,85,85,337,1,,,,,
,,,,,,f586470b3f0b1890e6311fb6,66a626ef09d4e21e1a8894ec,6734e04085a487704a4dbc87,2024-11-13_11h26.05.767,Tarea de género gramatical,2024.2.2,Win32,30.03003003,,,,,,,,,,,,,,,,,,,,,,,,265.7027,267.1338,a,1,0.7402,,[],[],[],[],[],[],[],0.7402,1,267.134,267.6338,,,,,,842,FEM,DIS,150,maleta,el,a,267.6338,267.634,-0.010742188,-0.338867188,0,0,0,,0,86,86,391,1,,,,,
,,,,,,f586470b3f0b1890e6311fb6,66a626ef09d4e21e1a8894ec,6734e04085a487704a4dbc87,2024-11-13_11h26.05.767,Tarea de género gramatical,2024.2.2,Win32,30.03003003,,,,,,,,,,,,,,,,,,,,,,,,267.636,269.0004,a,1,0.6856,,[],[],[],[],[],[],[],0.6856,1,269.0007,269.5005,,,,,,692,FEM,DIS,150,pizza,el,a,269.5031,269.5053,-0.010742188,-0.338867188,0,0,0,,0,87,87,241,1,,,,,
,,,,,,f586470b3f0b1890e6311fb6,66a626ef09d4e21e1a8894ec,6734e04085a487704a4dbc87,2024-11-13_11h26.05.767,Tarea de género gramatical,2024.2.2,Win32,30.03003003,,,,,,,,,,,,,,,,,,,,,,,,269.5066,270.7006,l,1,0.5229,,[],[],[],[],[],[],[],0.5229,1,270.7009,271.2006,,,,,,774,MAS,AGR,150,cuarto,el,l,271.2007,271.201,-0.010742188,-0.338867188,0,0,0,,0,88,88,323,1,,,,,
,,,,,,f586470b3f0b1890e6311fb6,66a626ef09d4e21e1a8894ec,6734e04085a487704a4dbc87,2024-11-13_11h26.05.767,Tarea de género gramatical,2024.2.2,Win32,30.03003003,,,,,,,,,,,,,,,,,,,,,,,,271.2028,272.5008,a,1,0.6034,,[],[],[],[],[],[],[],0.6034,1,272.5011,273.0008,,,,,,685,FEM,CON,150,torre,,a,273.0009,273.0012,-0.010742188,-0.338867188,0,0,0,,0,89,89,234,1,,,,,
,,,,,,f586470b3f0b1890e6311fb6,66a626ef09d4e21e1a8894ec,6734e04085a487704a4dbc87,2024-11-13_11h26.05.767,Tarea de género gramatical,2024.2.2,Win32,30.03003003,,,,,,,,,,,,,,,,,,,,,,,,273.0031,274.3342,a,1,0.6489,,[],[],[],[],[],[],[],0.6489,1,274.3344,274.8342,,,,,,603,FEM,AGR,150,mujer,la,a,274.8344,274.8345,-0.010742188,-0.338867188,0,0,0,,0,90,90,152,1,,,,,
,,,,,,f586470b3f0b1890e6311fb6,66a626ef09d4e21e1a8894ec,6734e04085a487704a4dbc87,2024-11-13_11h26.05.767,Tarea de género gramatical,2024.2.2,Win32,30.03003003,,,,,,,,,,,,,,,,,,,,,,,,274.8366,276.0013,a,1,0.4749,,[],[],[],[],[],[],[],0.4749,1,276.0015,276.5011,,,,,,482,FEM,DIS,150,caja,el,a,276.5011,276.5013,-0.010742188,-0.338867188,0,0,0,,0,91,91,31,1,,,,,
,,,,,,f586470b3f0b1890e6311fb6,66a626ef09d4e21e1a8894ec,6734e04085a487704a4dbc87,2024-11-13_11h26.05.767,Tarea de género gramatical,2024.2.2,Win32,30.03003003,,,,,,,,,,,,,,,,,,,,,,,,276.5034,277.8017,a,1,0.6257,,[],[],[],[],[],[],[],0.6257,1,277.8019,278.3012,,,,,,548,FEM,DIS,150,fuga,el,a,278.3037,278.3063,-0.010742188,-0.338867188,0,0,0,,0,92,92,97,1,,,,,
,,,,,,f586470b3f0b1890e6311fb6,66a626ef09d4e21e1a8894ec,6734e04085a487704a4dbc87,2024-11-13_11h26.05.767,Tarea de género gramatical,2024.2.2,Win32,30.03003003,,,,,,,,,,,,,,,,,,,,,,,,278.3077,279.401,a,1,0.4029,,[],[],[],[],[],[],[],0.4029,1,279.4012,279.9012,,,,,,877,FEM,CON,150,agenda,,a,279.9013,279.9015,-0.010742188,-0.338867188,0,0,0,,0,93,93,426,1,,,,,
,,,,,,f586470b3f0b1890e6311fb6,66a626ef09d4e21e1a8894ec,6734e04085a487704a4dbc87,2024-11-13_11h26.05.767,Tarea de género gramatical,2024.2.2,Win32,30.03003003,,,,,,,,,,,,,,,,,,,,,,,,279.9034,281.0347,a,1,0.4359,,[],[],[],[],[],[],[],0.4359,1,281.0349,281.5348,,,,,,871,FEM,CON,150,novela,,a,281.5349,281.5352,-0.010742188,-0.338867188,0,0,0,,0,94,94,420,1,,,,,
,,,,,,f586470b3f0b1890e6311fb6,66a626ef09d4e21e1a8894ec,6734e04085a487704a4dbc87,2024-11-13_11h26.05.767,Tarea de género gramatical,2024.2.2,Win32,30.03003003,,,,,,,,,,,,,,,,,,,,,,,,281.5369,282.6346,a,1,0.4038,,[],[],[],[],[],[],[],0.4038,1,282.6348,283.1343,,,,,,633,FEM,AGR,150,llave,la,a,283.1344,283.1346,-0.010742188,-0.338867188,0,0,0,,0,95,95,182,1,,,,,
,,,,,,f586470b3f0b1890e6311fb6,66a626ef09d4e21e1a8894ec,6734e04085a487704a4dbc87,2024-11-13_11h26.05.767,Tarea de género gramatical,2024.2.2,Win32,30.03003003,,,,,,,,,,,,,,,,,,,,,,,,283.1366,284.4014,a,1,0.5809,,[],[],[],[],[],[],[],0.5809,1,284.4016,284.9015,,,,,,663,FEM,AGR,150,magia,la,a,284.9041,284.9062,-0.010742188,-0.338867188,0,0,0,,0,96,96,212,1,,,,,
,,,,,,f586470b3f0b1890e6311fb6,66a626ef09d4e21e1a8894ec,6734e04085a487704a4dbc87,2024-11-13_11h26.05.767,Tarea de género gramatical,2024.2.2,Win32,30.03003003,,,,,,,,,,,,,,,,,,,,,,,,284.9075,286.1684,l,1,0.5846,,[],[],[],[],[],[],[],0.5846,1,286.1686,286.6683,,,,,,478,MAS,CON,150,club,,l,286.6684,286.6686,-0.010742188,-0.338867188,0,0,0,,0,97,97,27,1,,,,,
,,,,,,f586470b3f0b1890e6311fb6,66a626ef09d4e21e1a8894ec,6734e04085a487704a4dbc87,2024-11-13_11h26.05.767,Tarea de género gramatical,2024.2.2,Win32,30.03003003,,,,,,,,,,,,,,,,,,,,,,,,286.6706,287.9351,a,1,0.5686,,[],[],[],[],[],[],[],0.5686,1,287.9352,288.4351,,,,,,627,FEM,AGR,150,broma,la,a,288.4352,288.4353,-0.010742188,-0.338867188,0,0,0,,0,98,98,176,1,,,,,
,,,,,,f586470b3f0b1890e6311fb6,66a626ef09d4e21e1a8894ec,6734e04085a487704a4dbc87,2024-11-13_11h26.05.767,Tarea de género gramatical,2024.2.2,Win32,30.03003003,,,,,,,,,,,,,,,,,,,,,,,,288.4374,289.6685,l,1,0.5346,,[],[],[],[],[],[],[],0.5346,1,289.6686,290.1684,,,,,,840,MAS,AGR,150,rostro,el,l,290.1685,290.1687,-0.010742188,-0.338867188,0,0,0,,0,99,99,389,1,,,,,
,,,,,,f586470b3f0b1890e6311fb6,66a626ef09d4e21e1a8894ec,6734e04085a487704a4dbc87,2024-11-13_11h26.05.767,Tarea de género gramatical,2024.2.2,Win32,30.03003003,,,,,,,,,,,,,,,,,,,,,,,,290.1707,291.3352,a,1,0.4919,,[],[],[],[],[],[],[],0.4919,1,291.3352,291.8354,,,,,,483,FEM,AGR,150,boda,la,a,291.8355,291.8357,-0.010742188,-0.338867188,0,0,0,,0,100,100,32,1,,,,,
,,,,,,f586470b3f0b1890e6311fb6,66a626ef09d4e21e1a8894ec,6734e04085a487704a4dbc87,2024-11-13_11h26.05.767,Tarea de género gramatical,2024.2.2,Win32,30.03003003,,,,,,,,,,,,,,,,,,,,,,,,291.8376,292.9019,a,1,0.3879,,[],[],[],[],[],[],[],0.3879,1,292.9021,293.4022,,,,,,673,FEM,CON,150,plata,,a,293.4047,293.4066,-0.010742188,-0.338867188,0,0,0,,0,101,101,222,1,,,,,
,,,,,,f586470b3f0b1890e6311fb6,66a626ef09d4e21e1a8894ec,6734e04085a487704a4dbc87,2024-11-13_11h26.05.767,Tarea de género gramatical,2024.2.2,Win32,30.03003003,,,,,,,,,,,,,,,,,,,,,,,,293.4079,294.4355,l,1,0.3535,,[],[],[],[],[],[],[],0.3535,1,294.4356,294.9354,,,,,,648,MAS,AGR,150,hotel,el,l,294.9355,294.9358,-0.010742188,-0.338867188,0,0,0,,0,102,102,197,1,,,,,
,,,,,,f586470b3f0b1890e6311fb6,66a626ef09d4e21e1a8894ec,6734e04085a487704a4dbc87,2024-11-13_11h26.05.767,Tarea de género gramatical,2024.2.2,Win32,30.03003003,,,,,,,,,,,,,,,,,,,,,,,,294.9377,296.0687,a,1,0.4522,,[],[],[],[],[],[],[],0.4522,1,296.0689,296.5687,,,,,,878,FEM,DIS,150,jugada,el,a,296.5688,296.569,-0.010742188,-0.338867188,0,0,0,,0,103,103,427,1,,,,,
,,,,,,f586470b3f0b1890e6311fb6,66a626ef09d4e21e1a8894ec,6734e04085a487704a4dbc87,2024-11-13_11h26.05.767,Tarea de género gramatical,2024.2.2,Win32,30.03003003,,,,,,,,,,,,,,,,,,,,,,,,296.5711,297.8024,l,1,0.5532,,[],[],[],[],[],[],[],0.5532,1,297.8025,298.3023,,,,,,742,MAS,CON,150,piano,,l,298.3023,298.3025,-0.010742188,-0.338867188,0,0,0,,0,104,104,291,1,,,,,
,,,,,,f586470b3f0b1890e6311fb6,66a626ef09d4e21e1a8894ec,6734e04085a487704a4dbc87,2024-11-13_11h26.05.767,Tarea de género gramatical,2024.2.2,Win32,30.03003003,,,,,,,,,,,,,,,,,,,,,,,,298.3077,299.4353,a,1,0.4548,,[],[],[],[],[],[],[],0.4548,1,299.4355,299.9359,,,,,,741,FEM,AGR,150,aguja,la,a,299.9385,299.9409,-0.010742188,-0.338867188,0,0,0,,0,105,105,290,1,,,,,
,,,,,,f586470b3f0b1890e6311fb6,66a626ef09d4e21e1a8894ec,6734e04085a487704a4dbc87,2024-11-13_11h26.05.767,Tarea de género gramatical,2024.2.2,Win32,30.03003003,,,,,,,,,,,,,,,,,,,,,,,,299.9422,301.1357,l,1,0.5114,,[],[],[],[],[],[],[],0.5114,1,301.1359,301.6354,,,,,,653,MAS,DIS,150,novio,la,l,301.6355,301.6356,-0.010742188,-0.338867188,0,0,0,,0,106,106,202,1,,,,,
,,,,,,f586470b3f0b1890e6311fb6,66a626ef09d4e21e1a8894ec,6734e04085a487704a4dbc87,2024-11-13_11h26.05.767,Tarea de género gramatical,2024.2.2,Win32,30.03003003,,,,,,,,,,,,,,,,,,,,,,,,301.6377,302.9358,a,1,0.6033,,[],[],[],[],[],[],[],0.6033,1,302.936,303.4358,,,,,,464,FEM,DIS,150,cara,el,a,303.4359,303.436,-0.010742188,-0.338867188,0,0,0,,0,107,107,13,1,,,,,
,,,,,,f586470b3f0b1890e6311fb6,66a626ef09d4e21e1a8894ec,6734e04085a487704a4dbc87,2024-11-13_11h26.05.767,Tarea de género gramatical,2024.2.2,Win32,30.03003003,,,,,,,,,,,,,,,,,,,,,,,,303.4383,304.7027,l,1,0.5688,,[],[],[],[],[],[],[],0.5688,1,304.7029,305.2025,,,,,,736,MAS,CON,150,reino,,l,305.2026,305.2028,-0.010742188,-0.338867188,0,0,0,,0,108,108,285,1,,,,,
,,,,,,f586470b3f0b1890e6311fb6,66a626ef09d4e21e1a8894ec,6734e04085a487704a4dbc87,2024-11-13_11h26.05.767,Tarea de género gramatical,2024.2.2,Win32,30.03003003,,,,,,,,,,,,,,,,,,,,,,,,305.2048,306.436,l,1,0.5444,,[],[],[],[],[],[],[],0.5444,1,306.4362,306.9358,,,,,,875,MAS,DIS,150,chiste,la,l,306.9359,306.9361,-0.010742188,-0.338867188,0,0,0,,0,109,109,424,1,,,,,
,,,,,,f586470b3f0b1890e6311fb6,66a626ef09d4e21e1a8894ec,6734e04085a487704a4dbc87,2024-11-13_11h26.05.767,Tarea de género gramatical,2024.2.2,Win32,30.03003003,,,,,,,,,,,,,,,,,,,,,,,,306.9382,308.1028,a,1,0.4747,,[],[],[],[],[],[],[],0.4747,1,308.1029,308.6028,,,,,,651,FEM,AGR,150,leche,la,a,308.6053,308.6076,-0.010742188,-0.338867188,0,0,0,,0,110,110,200,1,,,,,
,,,,,,f586470b3f0b1890e6311fb6,66a626ef09d4e21e1a8894ec,6734e04085a487704a4dbc87,2024-11-13_11h26.05.767,Tarea de género gramatical,2024.2.2,Win32,30.03003003,,,,,,,,,,,,,,,,,,,,,,,,308.6089,309.6693,a,0,0.3824,,[],[],[],[],[],[],[],0.3824,0,309.6707,310.1696,,,,,,647,MAS,DIS,150,avión,la,l,310.1697,310.1699,-0.010742188,-0.338867188,0,0,0,,0,111,111,196,1,,,,,
,,,,,,f586470b3f0b1890e6311fb6,66a626ef09d4e21e1a8894ec,6734e04085a487704a4dbc87,2024-11-13_11h26.05.767,Tarea de género gramatical,2024.2.2,Win32,30.03003003,,,,,,,,,,,,,,,,,,,,,,,,310.1721,311.3362,a,1,0.4709,,[],[],[],[],[],[],[],0.4709,1,311.3376,311.8365,,,,,,872,FEM,DIS,150,rutina,el,a,311.8366,311.8367,-0.010742188,-0.338867188,0,0,0,,0,112,112,421,1,,,,,
,,,,,,f586470b3f0b1890e6311fb6,66a626ef09d4e21e1a8894ec,6734e04085a487704a4dbc87,2024-11-13_11h26.05.767,Tarea de género gramatical,2024.2.2,Win32,30.03003003,,,,,,,,,,,,,,,,,,,,,,,,311.8388,313.003,l,1,0.4808,,[],[],[],[],[],[],[],0.4808,1,313.0033,313.5026,,,,,,600,MAS,AGR,150,mozo,el,l,313.5028,313.5029,-0.010742188,-0.338867188,0,0,0,,0,113,113,149,1,,,,,
,,,,,,f586470b3f0b1890e6311fb6,66a626ef09d4e21e1a8894ec,6734e04085a487704a4dbc87,2024-11-13_11h26.05.767,Tarea de género gramatical,2024.2.2,Win32,30.03003003,,,,,,,,,,,,,,,,,,,,,,,,313.5046,314.7033,l,1,0.5016,,[],[],[],[],[],[],[],0.5016,1,314.7034,315.2031,,,,,,496,MAS,CON,150,odio,,l,315.2052,315.2072,-0.010742188,-0.338867188,0,0,0,,0,114,114,45,1,,,,,
,,,,,,f586470b3f0b1890e6311fb6,66a626ef09d4e21e1a8894ec,6734e04085a487704a4dbc87,2024-11-13_11h26.05.767,Tarea de género gramatical,2024.2.2,Win32,30.03003003,,,,,,,,,,,,,,,,,,,,,,,,315.2085,316.3363,a,1,0.4335,,[],[],[],[],[],[],[],0.4335,1,316.3367,316.836,,,,,,500,FEM,DIS,150,dama,el,a,316.836,316.8362,-0.010742188,-0.338867188,0,0,0,,0,115,115,49,1,,,,,
,,,,,,f586470b3f0b1890e6311fb6,66a626ef09d4e21e1a8894ec,6734e04085a487704a4dbc87,2024-11-13_11h26.05.767,Tarea de género gramatical,2024.2.2,Win32,30.03003003,,,,,,,,,,,,,,,,,,,,,,,,316.838,317.87,a,1,0.3379,,[],[],[],[],[],[],[],0.3379,1,317.8702,318.3699,,,,,,709,FEM,CON,150,prima,,a,318.3701,318.3702,-0.010742188,-0.338867188,0,0,0,,0,116,116,258,1,,,,,
,,,,,,f586470b3f0b1890e6311fb6,66a626ef09d4e21e1a8894ec,6734e04085a487704a4dbc87,2024-11-13_11h26.05.767,Tarea de género gramatical,2024.2.2,Win32,30.03003003,,,,,,,,,,,,,,,,,,,,,,,,318.3723,319.5368,l,1,0.468,,[],[],[],[],[],[],[],0.468,1,319.5369,320.0369,,,,,,678,MAS,AGR,150,nivel,el,l,320.037,320.0372,-0.010742188,-0.338867188,0,0,0,,0,117,117,227,1,,,,,
,,,,,,f586470b3f0b1890e6311fb6,66a626ef09d4e21e1a8894ec,6734e04085a487704a4dbc87,2024-11-13_11h26.05.767,Tarea de género gramatical,2024.2.2,Win32,30.03003003,,,,,,,,,,,,,,,,,,,,,,,,320.0392,321.1364,a,1,0.4245,,[],[],[],[],[],[],[],0.4245,1,321.1365,321.6366,,,,,,782,FEM,DIS,150,basura,el,a,321.6368,321.6369,-0.010742188,-0.338867188,0,0,0,,0,118,118,331,1,,,,,
,,,,,,f586470b3f0b1890e6311fb6,66a626ef09d4e21e1a8894ec,6734e04085a487704a4dbc87,2024-11-13_11h26.05.767,Tarea de género gramatical,2024.2.2,Win32,30.03003003,,,,,,,,,,,,,,,,,,,,,,,,321.6394,322.8035,l,1,0.467,,[],[],[],[],[],[],[],0.467,1,322.8037,323.3037,,,,,,641,MAS,DIS,150,dolor,la,l,323.3062,323.3083,-0.010742188,-0.338867188,0,0,0,,0,119,119,190,1,,,,,
,,,,,,f586470b3f0b1890e6311fb6,66a626ef09d4e21e1a8894ec,6734e04085a487704a4dbc87,2024-11-13_11h26.05.767,Tarea de género gramatical,2024.2.2,Win32,30.03003003,,,,,,,,,,,,,,,,,,,,,,,,323.3096,324.5034,l,1,0.506,,[],[],[],[],[],[],[],0.506,1,324.5036,325.0038,,,,,,484,MAS,CON,150,gato,,l,325.0038,325.004,-0.010742188,-0.338867188,0,0,0,,0,120,120,33,1,,,,,
,,,,,,f586470b3f0b1890e6311fb6,66a626ef09d4e21e1a8894ec,6734e04085a487704a4dbc87,2024-11-13_11h26.05.767,Tarea de género gramatical,2024.2.2,Win32,30.03003003,,,,,,,,,,,,,,,,,,,,,,,,325.0061,326.1037,a,1,0.4029,,[],[],[],[],[],[],[],0.4029,1,326.1039,326.6038,,,,,,819,FEM,AGR,150,camisa,la,a,326.6039,326.6041,-0.010742188,-0.338867188,0,0,0,,0,121,121,368,1,,,,,
,,,,,,f586470b3f0b1890e6311fb6,66a626ef09d4e21e1a8894ec,6734e04085a487704a4dbc87,2024-11-13_11h26.05.767,Tarea de género gramatical,2024.2.2,Win32,30.03003003,,,,,,,,,,,,,,,,,,,,,,,,326.6061,327.8704,l,1,0.5818,,[],[],[],[],[],[],[],0.5818,1,327.8706,328.3703,,,,,,858,MAS,AGR,150,cheque,el,l,328.3704,328.3706,-0.010742188,-0.338867188,0,0,0,,0,122,122,407,1,,,,,
,,,,,,f586470b3f0b1890e6311fb6,66a626ef09d4e21e1a8894ec,6734e04085a487704a4dbc87,2024-11-13_11h26.05.767,Tarea de género gramatical,2024.2.2,Win32,30.03003003,,,,,,,,,,,,,,,,,,,,,,,,328.3724,329.5374,a,1,0.4732,,[],[],[],[],[],[],[],0.4732,1,329.5376,330.0374,,,,,,733,FEM,CON,150,pluma,,a,330.0398,330.042,-0.010742188,-0.338867188,0,0,0,,0,123,123,282,1,,,,,
,,,,,,f586470b3f0b1890e6311fb6,66a626ef09d4e21e1a8894ec,6734e04085a487704a4dbc87,2024-11-13_11h26.05.767,Tarea de género gramatical,2024.2.2,Win32,30.03003003,,,,,,,,,,,,,,,,,,,,,,,,330.0433,331.6041,l,0,0.8701,,[],[],[],[],[],[],[],0.8701,0,331.6058,332.1041,,,,,,728,FEM,DIS,150,presa,el,a,332.1041,332.1043,-0.010742188,-0.338867188,0,0,0,,0,124,124,277,1,,,,,
,,,,,,f586470b3f0b1890e6311fb6,66a626ef09d4e21e1a8894ec,6734e04085a487704a4dbc87,2024-11-13_11h26.05.767,Tarea de género gramatical,2024.2.2,Win32,30.03003003,,,,,,,,,,,,,,,,,,,,,,,,332.1064,333.2707,l,1,0.4718,,[],[],[],[],[],[],[],0.4718,1,333.2721,333.771,,,,,,696,MAS,AGR,150,humor,el,l,333.7711,333.7713,-0.010742188,-0.338867188,0,0,0,,0,125,125,245,1,,,,,
,,,,,,f586470b3f0b1890e6311fb6,66a626ef09d4e21e1a8894ec,6734e04085a487704a4dbc87,2024-11-13_11h26.05.767,Tarea de género gramatical,2024.2.2,Win32,30.03003003,,,,,,,,,,,,,,,,,,,,,,,,333.7735,334.9044,l,1,0.4346,,[],[],[],[],[],[],[],0.4346,1,334.9046,335.404,,,,,,719,MAS,DIS,150,primo,la,l,335.4041,335.4042,-0.010742188,-0.338867188,0,0,0,,0,126,126,268,1,,,,,
,,,,,,f586470b3f0b1890e6311fb6,66a626ef09d4e21e1a8894ec,6734e04085a487704a4dbc87,2024-11-13_11h26.05.767,Tarea de género gramatical,2024.2.2,Win32,30.03003003,,,,,,,,,,,,,,,,,,,,,,,,335.4061,336.504,l,1,0.4005,,[],[],[],[],[],[],[],0.4005,1,336.5041,337.0041,,,,,,550,MAS,CON,150,nido,,l,337.0041,337.0043,-0.010742188,-0.338867188,0,0,0,,0,127,127,99,1,,,,,
,,,,,,f586470b3f0b1890e6311fb6,66a626ef09d4e21e1a8894ec,6734e04085a487704a4dbc87,2024-11-13_11h26.05.767,Tarea de género gramatical,2024.2.2,Win32,30.03003003,,,,,,,,,,,,,,,,,,,,,,,,337.0065,338.2048,l,1,0.5016,,[],[],[],[],[],[],[],0.5016,1,338.205,338.7044,,,,,,515,MAS,DIS,150,rayo,la,l,338.7071,338.7093,-0.010742188,-0.338867188,0,0,0,,0,128,128,64,1,,,,,
,,,,,,f586470b3f0b1890e6311fb6,66a626ef09d4e21e1a8894ec,6734e04085a487704a4dbc87,2024-11-13_11h26.05.767,Tarea de género gramatical,2024.2.2,Win32,30.03003003,,,,,,,,,,,,,,,,,,,,,,,,338.7108,339.871,a,1,0.4679,,[],[],[],[],[],[],[],0.4679,1,339.8712,340.3709,,,,,,644,FEM,DIS,150,banda,el,a,340.371,340.3712,-0.010742188,-0.338867188,0,0,0,,0,129,129,193,1,,,,,
,,,,,,f586470b3f0b1890e6311fb6,66a626ef09d4e21e1a8894ec,6734e04085a487704a4dbc87,2024-11-13_11h26.05.767,Tarea de género gramatical,2024.2.2,Win32,30.03003003,,,,,,,,,,,,,,,,,,,,,,,,340.3734,341.671,a,1,0.6005,,[],[],[],[],[],[],[],0.6005,1,341.6713,342.1708,,,,,,553,FEM,CON,150,fama,,a,342.1709,342.171,-0.010742188,-0.338867188,0,0,0,,0,130,130,102,1,,,,,
,,,,,,f586470b3f0b1890e6311fb6,66a626ef09d4e21e1a8894ec,6734e04085a487704a4dbc87,2024-11-13_11h26.05.767,Tarea de género gramatical,2024.2.2,Win32,30.03003003,,,,,,,,,,,,,,,,,,,,,,,,342.1732,343.3043,a,1,0.4518,,[],[],[],[],[],[],[],0.4518,1,343.3044,343.8048,,,,,,638,FEM,DIS,150,bomba,el,a,343.8049,343.8051,-0.010742188,-0.338867188,0,0,0,,0,131,131,187,1,,,,,
,,,,,,f586470b3f0b1890e6311fb6,66a626ef09d4e21e1a8894ec,6734e04085a487704a4dbc87,2024-11-13_11h26.05.767,Tarea de género gramatical,2024.2.2,Win32,30.03003003,,,,,,,,,,,,,,,,,,,,,,,,343.807,345.0378,l,1,0.5584,,[],[],[],[],[],[],[],0.5584,1,345.0379,345.5379,,,,,,886,MAS,CON,150,objeto,,l,345.5405,345.5425,-0.010742188,-0.338867188,0,0,0,,0,132,132,435,1,,,,,
,,,,,,f586470b3f0b1890e6311fb6,66a626ef09d4e21e1a8894ec,6734e04085a487704a4dbc87,2024-11-13_11h26.05.767,Tarea de género gramatical,2024.2.2,Win32,30.03003003,,,,,,,,,,,,,,,,,,,,,,,,345.5439,346.5717,l,1,0.339,,[],[],[],[],[],[],[],0.339,1,346.5719,347.0717,,,,,,564,MAS,AGR,150,menú,el,l,347.0718,347.0721,-0.010742188,-0.338867188,0,0,0,,0,133,133,113,1,,,,,
,,,,,,f586470b3f0b1890e6311fb6,66a626ef09d4e21e1a8894ec,6734e04085a487704a4dbc87,2024-11-13_11h26.05.767,Tarea de género gramatical,2024.2.2,Win32,30.03003003,,,,,,,,,,,,,,,,,,,,,,,,347.0741,348.2383,l,1,0.4897,,[],[],[],[],[],[],[],0.4897,1,348.2384,348.7383,,,,,,503,MAS,DIS,150,vaso,la,l,348.7383,348.7387,-0.010742188,-0.338867188,0,0,0,,0,134,134,52,1,,,,,
,,,,,,f586470b3f0b1890e6311fb6,66a626ef09d4e21e1a8894ec,6734e04085a487704a4dbc87,2024-11-13_11h26.05.767,Tarea de género gramatical,2024.2.2,Win32,30.03003003,,,,,,,,,,,,,,,,,,,,,,,,348.7407,349.9715,a,1,0.5396,,[],[],[],[],[],[],[],0.5396,1,349.9716,350.4718,,,,,,601,FEM,CON,150,noche,,a,350.4719,350.4721,-0.010742188,-0.338867188,0,0,0,,0,135,135,150,1,,,,,
,,,,,,f586470b3f0b1890e6311fb6,66a626ef09d4e21e1a8894ec,6734e04085a487704a4dbc87,2024-11-13_11h26.05.767,Tarea de género gramatical,2024.2.2,Win32,30.03003003,,,,,,,,,,,,,,,,,,,,,,,,350.474,351.6053,a,0,0.4447,,[],[],[],[],[],[],[],0.4447,0,351.6067,352.1048,,,,,,892,MAS,CON,150,cuadro,,l,352.1048,352.1051,-0.010742188,-0.338867188,0,0,0,,0,136,136,441,1,,,,,
,,,,,,f586470b3f0b1890e6311fb6,66a626ef09d4e21e1a8894ec,6734e04085a487704a4dbc87,2024-11-13_11h26.05.767,Tarea de género gramatical,2024.2.2,Win32,30.03003003,,,,,,,,,,,,,,,,,,,,,,,,352.1071,353.2715,a,1,0.4719,,[],[],[],[],[],[],[],0.4719,1,353.2727,353.772,,,,,,541,FEM,CON,150,hoja,,a,353.7744,353.7768,-0.010742188,-0.338867188,0,0,0,,0,137,137,90,1,,,,,
,,,,,,f586470b3f0b1890e6311fb6,66a626ef09d4e21e1a8894ec,6734e04085a487704a4dbc87,2024-11-13_11h26.05.767,Tarea de género gramatical,2024.2.2,Win32,30.03003003,,,,,,,,,,,,,,,,,,,,,,,,353.7782,355.0714,l,1,0.6239,,[],[],[],[],[],[],[],0.6239,1,355.0716,355.5717,,,,,,695,MAS,DIS,150,turno,la,l,355.5717,355.5719,-0.010742188,-0.338867188,0,0,0,,0,138,138,244,1,,,,,
,,,,,,f586470b3f0b1890e6311fb6,66a626ef09d4e21e1a8894ec,6734e04085a487704a4dbc87,2024-11-13_11h26.05.767,Tarea de género gramatical,2024.2.2,Win32,30.03003003,,,,,,,,,,,,,,,,,,,,,,,,355.574,356.5722,l,1,0.3227,,[],[],[],[],[],[],[],0.3227,1,356.5724,357.0721,,,,,,486,MAS,AGR,150,dedo,el,l,357.0722,357.0724,-0.010742188,-0.338867188,0,0,0,,0,139,139,35,1,,,,,
,,,,,,f586470b3f0b1890e6311fb6,66a626ef09d4e21e1a8894ec,6734e04085a487704a4dbc87,2024-11-13_11h26.05.767,Tarea de género gramatical,2024.2.2,Win32,30.03003003,,,,,,,,,,,,,,,,,,,,,,,,357.0744,358.1723,l,1,0.4016,,[],[],[],[],[],[],[],0.4016,1,358.1724,358.6722,,,,,,744,MAS,AGR,150,cable,el,l,358.6723,358.6725,-0.010742188,-0.338867188,0,0,0,,0,140,140,293,1,,,,,
,,,,,,f586470b3f0b1890e6311fb6,66a626ef09d4e21e1a8894ec,6734e04085a487704a4dbc87,2024-11-13_11h26.05.767,Tarea de género gramatical,2024.2.2,Win32,30.03003003,,,,,,,,,,,,,,,,,,,,,,,,358.6746,359.7721,a,1,0.4184,,[],[],[],[],[],[],[],0.4184,1,359.7722,360.2724,,,,,,813,FEM,AGR,150,unidad,la,a,360.2747,360.2771,-0.010742188,-0.338867188,0,0,0,,0,141,141,362,1,,,,,
,,,,,,f586470b3f0b1890e6311fb6,66a626ef09d4e21e1a8894ec,6734e04085a487704a4dbc87,2024-11-13_11h26.05.767,Tarea de género gramatical,2024.2.2,Win32,30.03003003,,,,,,,,,,,,,,,,,,,,,,,,360.2785,361.5392,l,0,0.59,,[],[],[],[],[],[],[],0.59,0,361.5406,362.0387,,,,,,656,FEM,DIS,150,época,el,a,362.0388,362.0391,-0.010742188,-0.338867188,0,0,0,,0,142,142,205,1,,,,,
,,,,,,f586470b3f0b1890e6311fb6,66a626ef09d4e21e1a8894ec,6734e04085a487704a4dbc87,2024-11-13_11h26.05.767,Tarea de género gramatical,2024.2.2,Win32,30.03003003,,,,,,,,,,,,,,,,,,,,,,,,362.041,363.3056,l,1,0.5789,,[],[],[],[],[],[],[],0.5789,1,363.307,363.806,,,,,,658,MAS,CON,150,suelo,,l,363.8061,363.8063,-0.010742188,-0.338867188,0,0,0,,0,143,143,207,1,,,,,
,,,,,,f586470b3f0b1890e6311fb6,66a626ef09d4e21e1a8894ec,6734e04085a487704a4dbc87,2024-11-13_11h26.05.767,Tarea de género gramatical,2024.2.2,Win32,30.03003003,,,,,,,,,,,,,,,,,,,,,,,,363.8084,365.0728,a,1,0.576,,[],[],[],[],[],[],[],0.576,1,365.0729,365.5726,,,,,,859,FEM,CON,150,moneda,,a,365.5726,365.5729,-0.010742188,-0.338867188,0,0,0,,0,144,144,408,1,,,,,
,,,,,,f586470b3f0b1890e6311fb6,66a626ef09d4e21e1a8894ec,6734e04085a487704a4dbc87,2024-11-13_11h26.05.767,Tarea de género gramatical,2024.2.2,Win32,30.03003003,,,,,,,,,,,,,,,,,,,,,,,,365.5748,366.7724,l,1,0.5026,,[],[],[],[],[],[],[],0.5026,1,366.7726,367.273,,,,,,792,MAS,AGR,150,abuelo,el,l,367.2731,367.2733,-0.010742188,-0.338867188,0,0,0,,0,145,145,341,1,,,,,
,,,,,,f586470b3f0b1890e6311fb6,66a626ef09d4e21e1a8894ec,6734e04085a487704a4dbc87,2024-11-13_11h26.05.767,Tarea de género gramatical,2024.2.2,Win32,30.03003003,,,,,,,,,,,,,,,,,,,,,,,,367.2751,368.3731,l,1,0.4074,,[],[],[],[],[],[],[],0.4074,1,368.3733,368.873,,,,,,646,MAS,CON,150,barco,,l,368.8755,368.878,-0.010742188,-0.338867188,0,0,0,,0,146,146,195,1,,,,,
,,,,,,f586470b3f0b1890e6311fb6,66a626ef09d4e21e1a8894ec,6734e04085a487704a4dbc87,2024-11-13_11h26.05.767,Tarea de género gramatical,2024.2.2,Win32,30.03003003,,,,,,,,,,,,,,,,,,,,,,,,368.8793,370.0063,l,1,0.4447,,[],[],[],[],[],[],[],0.4447,1,370.0066,370.5063,,,,,,844,MAS,CON,150,examen,,l,370.5065,370.5067,-0.010742188,-0.338867188,0,0,0,,0,147,147,393,1,,,,,
,,,,,,f586470b3f0b1890e6311fb6,66a626ef09d4e21e1a8894ec,6734e04085a487704a4dbc87,2024-11-13_11h26.05.767,Tarea de género gramatical,2024.2.2,Win32,30.03003003,,,,,,,,,,,,,,,,,,,,,,,,370.5086,371.5397,l,1,0.3538,,[],[],[],[],[],[],[],0.3538,1,371.5398,372.0397,,,,,,755,MAS,DIS,150,hombre,la,l,372.0398,372.0399,-0.010742188,-0.338867188,0,0,0,,0,148,148,304,1,,,,,
,,,,,,f586470b3f0b1890e6311fb6,66a626ef09d4e21e1a8894ec,6734e04085a487704a4dbc87,2024-11-13_11h26.05.767,Tarea de género gramatical,2024.2.2,Win32,30.03003003,,,,,,,,,,,,,,,,,,,,,,,,372.0419,373.073,l,1,0.334,,[],[],[],[],[],[],[],0.334,1,373.0732,373.573,,,,,,749,MAS,DIS,150,rumbo,la,l,373.5731,373.5734,-0.010742188,-0.338867188,0,0,0,,0,149,149,298,1,,,,,
,,,,,,f586470b3f0b1890e6311fb6,66a626ef09d4e21e1a8894ec,6734e04085a487704a4dbc87,2024-11-13_11h26.05.767,Tarea de género gramatical,2024.2.2,Win32,30.03003003,,,,,,,,,,,,,,,,,,,,,,,,373.5755,374.64,l,1,0.3674,,[],[],[],[],[],[],[],0.3674,1,374.6402,375.1401,,,,,,772,MAS,CON,150,minuto,,l,375.1423,473.9459,0.111328125,-0.407226563,1,0,0,,0,150,150,321,1,break_done_button,,,,
,,,,,,f586470b3f0b1890e6311fb6,66a626ef09d4e21e1a8894ec,6734e04085a487704a4dbc87,2024-11-13_11h26.05.767,Tarea de género gramatical,2024.2.2,Win32,30.03003003,,,,,,,,,,,,,,,,,,,,,,,,473.9486,475.3455,a,1,0.7028,,[],[],[],[],[],[],[],0.7028,1,475.3458,475.8456,,,,,,453,FEM,AGR,150,cosa,la,a,475.8458,475.8459,0.111328125,-0.407226563,0,0,0,,0,151,151,2,1,,,,,
,,,,,,f586470b3f0b1890e6311fb6,66a626ef09d4e21e1a8894ec,6734e04085a487704a4dbc87,2024-11-13_11h26.05.767,Tarea de género gramatical,2024.2.2,Win32,30.03003003,,,,,,,,,,,,,,,,,,,,,,,,475.848,476.979,l,1,0.4506,,[],[],[],[],[],[],[],0.4506,1,476.9792,477.479,,,,,,599,MAS,DIS,150,nudo,la,l,477.4792,477.4795,0.111328125,-0.407226563,0,0,0,,0,152,152,148,1,,,,,
,,,,,,f586470b3f0b1890e6311fb6,66a626ef09d4e21e1a8894ec,6734e04085a487704a4dbc87,2024-11-13_11h26.05.767,Tarea de género gramatical,2024.2.2,Win32,30.03003003,,,,,,,,,,,,,,,,,,,,,,,,477.4815,478.7118,a,1,0.5339,,[],[],[],[],[],[],[],0.5339,1,478.712,479.2124,,,,,,734,FEM,DIS,150,fruta,el,a,479.2124,479.2126,0.111328125,-0.407226563,0,0,0,,0,153,153,283,1,,,,,
,,,,,,f586470b3f0b1890e6311fb6,66a626ef09d4e21e1a8894ec,6734e04085a487704a4dbc87,2024-11-13_11h26.05.767,Tarea de género gramatical,2024.2.2,Win32,30.03003003,,,,,,,,,,,,,,,,,,,,,,,,479.2146,480.4125,a,1,0.5106,,[],[],[],[],[],[],[],0.5106,1,480.4126,480.9126,,,,,,608,FEM,DIS,150,chica,el,a,480.9128,480.913,0.111328125,-0.407226563,0,0,0,,0,154,154,157,1,,,,,
,,,,,,f586470b3f0b1890e6311fb6,66a626ef09d4e21e1a8894ec,6734e04085a487704a4dbc87,2024-11-13_11h26.05.767,Tarea de género gramatical,2024.2.2,Win32,30.03003003,,,,,,,,,,,,,,,,,,,,,,,,480.9149,482.1794,a,1,0.5675,,[],[],[],[],[],[],[],0.5675,1,482.1795,482.6793,,,,,,855,FEM,AGR,150,parada,la,a,482.6815,482.684,0.111328125,-0.407226563,0,0,0,,0,155,155,404,1,,,,,
,,,,,,f586470b3f0b1890e6311fb6,66a626ef09d4e21e1a8894ec,6734e04085a487704a4dbc87,2024-11-13_11h26.05.767,Tarea de género gramatical,2024.2.2,Win32,30.03003003,,,,,,,,,,,,,,,,,,,,,,,,482.6854,483.8462,a,1,0.4719,,[],[],[],[],[],[],[],0.4719,1,483.8463,484.346,,,,,,764,FEM,DIS,150,señora,el,a,484.3461,484.3463,0.111328125,-0.407226563,0,0,0,,0,156,156,313,1,,,,,
,,,,,,f586470b3f0b1890e6311fb6,66a626ef09d4e21e1a8894ec,6734e04085a487704a4dbc87,2024-11-13_11h26.05.767,Tarea de género gramatical,2024.2.2,Win32,30.03003003,,,,,,,,,,,,,,,,,,,,,,,,484.3484,485.8461,a,1,0.8014,,[],[],[],[],[],[],[],0.8014,1,485.8463,486.3462,,,,,,866,FEM,DIS,150,colina,el,a,486.3464,486.3465,0.111328125,-0.407226563,0,0,0,,0,157,157,415,1,,,,,
,,,,,,f586470b3f0b1890e6311fb6,66a626ef09d4e21e1a8894ec,6734e04085a487704a4dbc87,2024-11-13_11h26.05.767,Tarea de género gramatical,2024.2.2,Win32,30.03003003,,,,,,,,,,,,,,,,,,,,,,,,486.3485,487.7131,l,1,0.6726,,[],[],[],[],[],[],[],0.6726,1,487.7133,488.213,,,,,,545,MAS,DIS,150,tomo,la,l,488.2131,488.2132,0.111328125,-0.407226563,0,0,0,,0,158,158,94,1,,,,,
,,,,,,f586470b3f0b1890e6311fb6,66a626ef09d4e21e1a8894ec,6734e04085a487704a4dbc87,2024-11-13_11h26.05.767,Tarea de género gramatical,2024.2.2,Win32,30.03003003,,,,,,,,,,,,,,,,,,,,,,,,488.2152,489.3464,l,1,0.4345,,[],[],[],[],[],[],[],0.4345,1,489.3466,489.8465,,,,,,508,MAS,CON,150,mono,,l,489.849,489.851,0.111328125,-0.407226563,0,0,0,,0,159,159,57,1,,,,,
,,,,,,f586470b3f0b1890e6311fb6,66a626ef09d4e21e1a8894ec,6734e04085a487704a4dbc87,2024-11-13_11h26.05.767,Tarea de género gramatical,2024.2.2,Win32,30.03003003,,,,,,,,,,,,,,,,,,,,,,,,489.8523,491.1799,l,1,0.647,,[],[],[],[],[],[],[],0.647,1,491.18,491.6799,,,,,,779,MAS,DIS,150,futuro,la,l,491.68,491.6801,0.111328125,-0.407226563,0,0,0,,0,160,160,328,1,,,,,
,,,,,,f586470b3f0b1890e6311fb6,66a626ef09d4e21e1a8894ec,6734e04085a487704a4dbc87,2024-11-13_11h26.05.767,Tarea de género gramatical,2024.2.2,Win32,30.03003003,,,,,,,,,,,,,,,,,,,,,,,,491.6821,492.7133,l,1,0.3456,,[],[],[],[],[],[],[],0.3456,1,492.7134,493.2134,,,,,,718,MAS,CON,150,truco,,l,493.2134,493.2136,0.111328125,-0.407226563,0,0,0,,0,161,161,267,1,,,,,
,,,,,,f586470b3f0b1890e6311fb6,66a626ef09d4e21e1a8894ec,6734e04085a487704a4dbc87,2024-11-13_11h26.05.767,Tarea de género gramatical,2024.2.2,Win32,30.03003003,,,,,,,,,,,,,,,,,,,,,,,,493.2156,494.2797,l,1,0.3703,,[],[],[],[],[],[],[],0.3703,1,494.2799,494.7802,,,,,,520,MAS,CON,150,palo,,l,494.7803,494.7804,0.111328125,-0.407226563,0,0,0,,0,162,162,69,1,,,,,
,,,,,,f586470b3f0b1890e6311fb6,66a626ef09d4e21e1a8894ec,6734e04085a487704a4dbc87,2024-11-13_11h26.05.767,Tarea de género gramatical,2024.2.2,Win32,30.03003003,,,,,,,,,,,,,,,,,,,,,,,,494.7824,495.8798,a,1,0.4155,,[],[],[],[],[],[],[],0.4155,1,495.88,496.3798,,,,,,583,FEM,CON,150,joya,,a,496.3799,496.3801,0.111328125,-0.407226563,0,0,0,,0,163,163,132,1,,,,,
,,,,,,f586470b3f0b1890e6311fb6,66a626ef09d4e21e1a8894ec,6734e04085a487704a4dbc87,2024-11-13_11h26.05.767,Tarea de género gramatical,2024.2.2,Win32,30.03003003,,,,,,,,,,,,,,,,,,,,,,,,496.3822,497.7802,l,1,0.7012,,[],[],[],[],[],[],[],0.7012,1,497.7804,498.2803,,,,,,689,MAS,DIS,150,reloj,la,l,498.2829,498.2853,0.111328125,-0.407226563,0,0,0,,0,164,164,238,1,,,,,
,,,,,,f586470b3f0b1890e6311fb6,66a626ef09d4e21e1a8894ec,6734e04085a487704a4dbc87,2024-11-13_11h26.05.767,Tarea de género gramatical,2024.2.2,Win32,30.03003003,,,,,,,,,,,,,,,,,,,,,,,,498.2865,499.547,a,0,0.5683,,[],[],[],[],[],[],[],0.5683,0,499.5485,500.047,,,,,,845,MAS,DIS,150,correo,la,l,500.0471,500.0473,0.111328125,-0.407226563,0,0,0,,0,165,165,394,1,,,,,
,,,,,,f586470b3f0b1890e6311fb6,66a626ef09d4e21e1a8894ec,6734e04085a487704a4dbc87,2024-11-13_11h26.05.767,Tarea de género gramatical,2024.2.2,Win32,30.03003003,,,,,,,,,,,,,,,,,,,,,,,,500.0496,501.7804,a,1,1.0419,,[],[],[],[],[],[],[],1.0419,1,501.7818,502.2805,,,,,,704,FEM,DIS,150,caída,el,a,502.2805,502.2807,0.111328125,-0.407226563,0,0,0,,0,166,166,253,1,,,,,
,,,,,,f586470b3f0b1890e6311fb6,66a626ef09d4e21e1a8894ec,6734e04085a487704a4dbc87,2024-11-13_11h26.05.767,Tarea de género gramatical,2024.2.2,Win32,30.03003003,,,,,,,,,,,,,,,,,,,,,,,,502.2826,503.4472,a,1,0.4789,,[],[],[],[],[],[],[],0.4789,1,503.4474,503.9473,,,,,,493,FEM,CON,150,nena,,a,503.9475,503.9477,0.111328125,-0.407226563,0,0,0,,0,167,167,42,1,,,,,
,,,,,,f586470b3f0b1890e6311fb6,66a626ef09d4e21e1a8894ec,6734e04085a487704a4dbc87,2024-11-13_11h26.05.767,Tarea de género gramatical,2024.2.2,Win32,30.03003003,,,,,,,,,,,,,,,,,,,,,,,,503.9497,505.2473,l,0,0.6057,,[],[],[],[],[],[],[],0.6057,0,505.2492,505.7473,,,,,,710,FEM,DIS,150,barra,el,a,505.7497,505.7523,0.111328125,-0.407226563,0,0,0,,0,168,168,259,1,,,,,
,,,,,,f586470b3f0b1890e6311fb6,66a626ef09d4e21e1a8894ec,6734e04085a487704a4dbc87,2024-11-13_11h26.05.767,Tarea de género gramatical,2024.2.2,Win32,30.03003003,,,,,,,,,,,,,,,,,,,,,,,,505.7537,507.0143,a,1,0.584,,[],[],[],[],[],[],[],0.584,1,507.016,507.5141,,,,,,565,FEM,CON,150,seda,,a,507.5142,507.5143,0.111328125,-0.407226563,0,0,0,,0,169,169,114,1,,,,,
,,,,,,f586470b3f0b1890e6311fb6,66a626ef09d4e21e1a8894ec,6734e04085a487704a4dbc87,2024-11-13_11h26.05.767,Tarea de género gramatical,2024.2.2,Win32,30.03003003,,,,,,,,,,,,,,,,,,,,,,,,507.5164,508.6142,a,1,0.4011,,[],[],[],[],[],[],[],0.4011,1,508.6144,509.1145,,,,,,681,FEM,AGR,150,bruja,la,a,509.1146,509.1149,0.111328125,-0.407226563,0,0,0,,0,170,170,230,1,,,,,
,,,,,,f586470b3f0b1890e6311fb6,66a626ef09d4e21e1a8894ec,6734e04085a487704a4dbc87,2024-11-13_11h26.05.767,Tarea de género gramatical,2024.2.2,Win32,30.03003003,,,,,,,,,,,,,,,,,,,,,,,,509.1166,510.2808,l,1,0.4674,,[],[],[],[],[],[],[],0.4674,1,510.281,510.7809,,,,,,894,MAS,AGR,150,límite,el,l,510.781,510.7812,0.111328125,-0.407226563,0,0,0,,0,171,171,443,1,,,,,
,,,,,,f586470b3f0b1890e6311fb6,66a626ef09d4e21e1a8894ec,6734e04085a487704a4dbc87,2024-11-13_11h26.05.767,Tarea de género gramatical,2024.2.2,Win32,30.03003003,,,,,,,,,,,,,,,,,,,,,,,,510.7831,511.9474,a,1,0.4675,,[],[],[],[],[],[],[],0.4675,1,511.9476,512.4476,,,,,,703,FEM,CON,150,aldea,,a,512.4478,512.4482,0.111328125,-0.407226563,0,0,0,,0,172,172,252,1,,,,,
,,,,,,f586470b3f0b1890e6311fb6,66a626ef09d4e21e1a8894ec,6734e04085a487704a4dbc87,2024-11-13_11h26.05.767,Tarea de género gramatical,2024.2.2,Win32,30.03003003,,,,,,,,,,,,,,,,,,,,,,,,512.4502,513.6479,a,1,0.5008,,[],[],[],[],[],[],[],0.5008,1,513.6481,514.1477,,,,,,836,FEM,DIS,150,sombra,el,a,514.1501,514.1521,0.111328125,-0.407226563,0,0,0,,0,173,173,385,1,,,,,
,,,,,,f586470b3f0b1890e6311fb6,66a626ef09d4e21e1a8894ec,6734e04085a487704a4dbc87,2024-11-13_11h26.05.767,Tarea de género gramatical,2024.2.2,Win32,30.03003003,,,,,,,,,,,,,,,,,,,,,,,,514.1533,515.2144,a,1,0.3866,,[],[],[],[],[],[],[],0.3866,1,515.2146,515.7146,,,,,,567,FEM,AGR,150,raya,la,a,515.7148,515.7149,0.111328125,-0.407226563,0,0,0,,0,174,174,116,1,,,,,
,,,,,,f586470b3f0b1890e6311fb6,66a626ef09d4e21e1a8894ec,6734e04085a487704a4dbc87,2024-11-13_11h26.05.767,Tarea de género gramatical,2024.2.2,Win32,30.03003003,,,,,,,,,,,,,,,,,,,,,,,,515.7169,516.8809,l,1,0.4808,,[],[],[],[],[],[],[],0.4808,1,516.8812,517.3815,,,,,,706,MAS,CON,150,techo,,l,517.3816,517.3818,0.111328125,-0.407226563,0,0,0,,0,175,175,255,1,,,,,
,,,,,,f586470b3f0b1890e6311fb6,66a626ef09d4e21e1a8894ec,6734e04085a487704a4dbc87,2024-11-13_11h26.05.767,Tarea de género gramatical,2024.2.2,Win32,30.03003003,,,,,,,,,,,,,,,,,,,,,,,,517.384,518.6815,a,1,0.6037,,[],[],[],[],[],[],[],0.6037,1,518.6816,519.1815,,,,,,457,FEM,CON,150,hora,,a,519.1816,519.1818,0.111328125,-0.407226563,0,0,0,,0,176,176,6,1,,,,,
,,,,,,f586470b3f0b1890e6311fb6,66a626ef09d4e21e1a8894ec,6734e04085a487704a4dbc87,2024-11-13_11h26.05.767,Tarea de género gramatical,2024.2.2,Win32,30.03003003,,,,,,,,,,,,,,,,,,,,,,,,519.1837,520.4148,a,1,0.5338,,[],[],[],[],[],[],[],0.5338,1,520.415,520.9148,,,,,,661,FEM,CON,150,salud,,a,520.917,520.9193,0.111328125,-0.407226563,0,0,0,,0,177,177,210,1,,,,,
,,,,,,f586470b3f0b1890e6311fb6,66a626ef09d4e21e1a8894ec,6734e04085a487704a4dbc87,2024-11-13_11h26.05.767,Tarea de género gramatical,2024.2.2,Win32,30.03003003,,,,,,,,,,,,,,,,,,,,,,,,520.9205,522.1147,a,1,0.5228,,[],[],[],[],[],[],[],0.5228,1,522.1148,522.6146,,,,,,511,FEM,CON,150,ruta,,a,522.6148,522.615,0.111328125,-0.407226563,0,0,0,,0,178,178,60,1,,,,,
,,,,,,f586470b3f0b1890e6311fb6,66a626ef09d4e21e1a8894ec,6734e04085a487704a4dbc87,2024-11-13_11h26.05.767,Tarea de género gramatical,2024.2.2,Win32,30.03003003,,,,,,,,,,,,,,,,,,,,,,,,522.617,523.7145,a,1,0.4074,,[],[],[],[],[],[],[],0.4074,1,523.7147,524.2148,,,,,,507,FEM,AGR,150,moda,la,a,524.2149,524.2151,0.111328125,-0.407226563,0,0,0,,0,179,179,56,1,,,,,
,,,,,,f586470b3f0b1890e6311fb6,66a626ef09d4e21e1a8894ec,6734e04085a487704a4dbc87,2024-11-13_11h26.05.767,Tarea de género gramatical,2024.2.2,Win32,30.03003003,,,,,,,,,,,,,,,,,,,,,,,,524.2172,525.6486,l,1,0.7342,,[],[],[],[],[],[],[],0.7342,1,525.6488,526.1486,,,,,,816,MAS,AGR,150,riesgo,el,l,526.1486,526.1488,0.111328125,-0.407226563,0,0,0,,0,180,180,365,1,,,,,
,,,,,,f586470b3f0b1890e6311fb6,66a626ef09d4e21e1a8894ec,6734e04085a487704a4dbc87,2024-11-13_11h26.05.767,Tarea de género gramatical,2024.2.2,Win32,30.03003003,,,,,,,,,,,,,,,,,,,,,,,,526.151,527.215,l,1,0.3721,,[],[],[],[],[],[],[],0.3721,1,527.2153,527.7148,,,,,,642,MAS,AGR,150,grupo,el,l,527.7149,527.715,0.111328125,-0.407226563,0,0,0,,0,181,181,191,1,,,,,
,,,,,,f586470b3f0b1890e6311fb6,66a626ef09d4e21e1a8894ec,6734e04085a487704a4dbc87,2024-11-13_11h26.05.767,Tarea de género gramatical,2024.2.2,Win32,30.03003003,,,,,,,,,,,,,,,,,,,,,,,,527.7171,529.1484,a,1,0.757,,[],[],[],[],[],[],[],0.757,1,529.1487,529.6487,,,,,,818,FEM,DIS,150,gracia,el,a,529.6512,529.6533,0.111328125,-0.407226563,0,0,0,,0,182,182,367,1,,,,,
,,,,,,f586470b3f0b1890e6311fb6,66a626ef09d4e21e1a8894ec,6734e04085a487704a4dbc87,2024-11-13_11h26.05.767,Tarea de género gramatical,2024.2.2,Win32,30.03003003,,,,,,,,,,,,,,,,,,,,,,,,529.6546,530.9822,a,1,0.6561,,[],[],[],[],[],[],[],0.6561,1,530.9823,531.4821,,,,,,675,FEM,AGR,150,pieza,la,a,531.4822,531.4823,0.111328125,-0.407226563,0,0,0,,0,183,183,224,1,,,,,
,,,,,,f586470b3f0b1890e6311fb6,66a626ef09d4e21e1a8894ec,6734e04085a487704a4dbc87,2024-11-13_11h26.05.767,Tarea de género gramatical,2024.2.2,Win32,30.03003003,,,,,,,,,,,,,,,,,,,,,,,,531.4844,532.5156,a,1,0.3348,,[],[],[],[],[],[],[],0.3348,1,532.5157,533.0151,,,,,,783,FEM,AGR,150,locura,la,a,533.0152,533.0154,0.111328125,-0.407226563,0,0,0,,0,184,184,332,1,,,,,
,,,,,,f586470b3f0b1890e6311fb6,66a626ef09d4e21e1a8894ec,6734e04085a487704a4dbc87,2024-11-13_11h26.05.767,Tarea de género gramatical,2024.2.2,Win32,30.03003003,,,,,,,,,,,,,,,,,,,,,,,,533.0175,534.0489,a,1,0.3541,,[],[],[],[],[],[],[],0.3541,1,534.049,534.549,,,,,,530,FEM,DIS,150,vaca,el,a,534.5491,534.5493,0.111328125,-0.407226563,0,0,0,,0,185,185,79,1,,,,,
,,,,,,f586470b3f0b1890e6311fb6,66a626ef09d4e21e1a8894ec,6734e04085a487704a4dbc87,2024-11-13_11h26.05.767,Tarea de género gramatical,2024.2.2,Win32,30.03003003,,,,,,,,,,,,,,,,,,,,,,,,534.5514,535.6157,l,1,0.381,,[],[],[],[],[],[],[],0.381,1,535.6158,536.1158,,,,,,610,MAS,CON,150,señor,,l,536.1183,536.1202,0.111328125,-0.407226563,0,0,0,,0,186,186,159,1,,,,,
,,,,,,f586470b3f0b1890e6311fb6,66a626ef09d4e21e1a8894ec,6734e04085a487704a4dbc87,2024-11-13_11h26.05.767,Tarea de género gramatical,2024.2.2,Win32,30.03003003,,,,,,,,,,,,,,,,,,,,,,,,536.1216,537.5492,l,1,0.7344,,[],[],[],[],[],[],[],0.7344,1,537.5494,538.0492,,,,,,827,MAS,DIS,150,jardín,la,l,538.0493,538.0496,0.111328125,-0.407226563,0,0,0,,0,187,187,376,1,,,,,
,,,,,,f586470b3f0b1890e6311fb6,66a626ef09d4e21e1a8894ec,6734e04085a487704a4dbc87,2024-11-13_11h26.05.767,Tarea de género gramatical,2024.2.2,Win32,30.03003003,,,,,,,,,,,,,,,,,,,,,,,,538.0514,539.1158,l,1,0.3724,,[],[],[],[],[],[],[],0.3724,1,539.1159,539.616,,,,,,568,MAS,CON,150,baúl,,l,539.616,539.6162,0.111328125,-0.407226563,0,0,0,,0,188,188,117,1,,,,,
,,,,,,f586470b3f0b1890e6311fb6,66a626ef09d4e21e1a8894ec,6734e04085a487704a4dbc87,2024-11-13_11h26.05.767,Tarea de género gramatical,2024.2.2,Win32,30.03003003,,,,,,,,,,,,,,,,,,,,,,,,539.6182,540.7824,a,1,0.4754,,[],[],[],[],[],[],[],0.4754,1,540.7824,541.2827,,,,,,501,FEM,AGR,150,bala,la,a,541.2828,541.283,0.111328125,-0.407226563,0,0,0,,0,189,189,50,1,,,,,
,,,,,,f586470b3f0b1890e6311fb6,66a626ef09d4e21e1a8894ec,6734e04085a487704a4dbc87,2024-11-13_11h26.05.767,Tarea de género gramatical,2024.2.2,Win32,30.03003003,,,,,,,,,,,,,,,,,,,,,,,,541.2849,542.3828,l,1,0.4005,,[],[],[],[],[],[],[],0.4005,1,542.3829,542.8826,,,,,,876,MAS,AGR,150,pánico,el,l,542.8827,542.8828,0.111328125,-0.407226563,0,0,0,,0,190,190,425,1,,,,,
,,,,,,f586470b3f0b1890e6311fb6,66a626ef09d4e21e1a8894ec,6734e04085a487704a4dbc87,2024-11-13_11h26.05.767,Tarea de género gramatical,2024.2.2,Win32,30.03003003,,,,,,,,,,,,,,,,,,,,,,,,542.8848,543.9825,l,1,0.4156,,[],[],[],[],[],[],[],0.4156,1,543.9826,544.4824,,,,,,570,MAS,AGR,150,puño,el,l,544.4849,544.4869,0.111328125,-0.407226563,0,0,0,,0,191,191,119,1,,,,,
,,,,,,f586470b3f0b1890e6311fb6,66a626ef09d4e21e1a8894ec,6734e04085a487704a4dbc87,2024-11-13_11h26.05.767,Tarea de género gramatical,2024.2.2,Win32,30.03003003,,,,,,,,,,,,,,,,,,,,,,,,544.4882,545.683,a,1,0.5129,,[],[],[],[],[],[],[],0.5129,1,545.6831,546.1826,,,,,,830,FEM,DIS,150,madera,el,a,546.1827,546.1829,0.111328125,-0.407226563,0,0,0,,0,192,192,379,1,,,,,
,,,,,,f586470b3f0b1890e6311fb6,66a626ef09d4e21e1a8894ec,6734e04085a487704a4dbc87,2024-11-13_11h26.05.767,Tarea de género gramatical,2024.2.2,Win32,30.03003003,,,,,,,,,,,,,,,,,,,,,,,,546.185,547.2828,l,0,0.4241,,[],[],[],[],[],[],[],0.4241,0,547.2841,547.7829,,,,,,711,FEM,AGR,150,cueva,la,a,547.783,547.7833,0.111328125,-0.407226563,0,0,0,,0,193,193,260,1,,,,,
,,,,,,f586470b3f0b1890e6311fb6,66a626ef09d4e21e1a8894ec,6734e04085a487704a4dbc87,2024-11-13_11h26.05.767,Tarea de género gramatical,2024.2.2,Win32,30.03003003,,,,,,,,,,,,,,,,,,,,,,,,547.7853,549.1828,a,1,0.7197,,[],[],[],[],[],[],[],0.7197,1,549.1842,549.6832,,,,,,645,FEM,AGR,150,pared,la,a,549.6833,549.6835,0.111328125,-0.407226563,0,0,0,,0,194,194,194,1,,,,,
,,,,,,f586470b3f0b1890e6311fb6,66a626ef09d4e21e1a8894ec,6734e04085a487704a4dbc87,2024-11-13_11h26.05.767,Tarea de género gramatical,2024.2.2,Win32,30.03003003,,,,,,,,,,,,,,,,,,,,,,,,549.6855,550.7832,a,1,0.4207,,[],[],[],[],[],[],[],0.4207,1,550.7833,551.2831,,,,,,621,FEM,AGR,150,mitad,la,a,551.2856,551.2877,0.111328125,-0.407226563,0,0,0,,0,195,195,170,1,,,,,
,,,,,,f586470b3f0b1890e6311fb6,66a626ef09d4e21e1a8894ec,6734e04085a487704a4dbc87,2024-11-13_11h26.05.767,Tarea de género gramatical,2024.2.2,Win32,30.03003003,,,,,,,,,,,,,,,,,,,,,,,,551.289,552.4834,a,1,0.5068,,[],[],[],[],[],[],[],0.5068,1,552.4836,552.9834,,,,,,579,FEM,AGR,150,rana,la,a,552.9835,552.9839,0.111328125,-0.407226563,0,0,0,,0,196,196,128,1,,,,,
,,,,,,f586470b3f0b1890e6311fb6,66a626ef09d4e21e1a8894ec,6734e04085a487704a4dbc87,2024-11-13_11h26.05.767,Tarea de género gramatical,2024.2.2,Win32,30.03003003,,,,,,,,,,,,,,,,,,,,,,,,552.9858,554.0162,a,1,0.3577,,[],[],[],[],[],[],[],0.3577,1,554.0163,554.517,,,,,,794,FEM,DIS,150,pareja,el,a,554.517,554.5172,0.111328125,-0.407226563,0,0,0,,0,197,197,343,1,,,,,
,,,,,,f586470b3f0b1890e6311fb6,66a626ef09d4e21e1a8894ec,6734e04085a487704a4dbc87,2024-11-13_11h26.05.767,Tarea de género gramatical,2024.2.2,Win32,30.03003003,,,,,,,,,,,,,,,,,,,,,,,,554.5191,555.9162,a,1,0.7245,,[],[],[],[],[],[],[],0.7245,1,555.9163,556.4169,,,,,,776,FEM,DIS,150,música,el,a,556.4169,556.4171,0.111328125,-0.407226563,0,0,0,,0,198,198,325,1,,,,,
,,,,,,f586470b3f0b1890e6311fb6,66a626ef09d4e21e1a8894ec,6734e04085a487704a4dbc87,2024-11-13_11h26.05.767,Tarea de género gramatical,2024.2.2,Win32,30.03003003,,,,,,,,,,,,,,,,,,,,,,,,556.4191,557.55,l,1,0.4526,,[],[],[],[],[],[],[],0.4526,1,557.5502,558.0504,,,,,,461,MAS,DIS,150,país,la,l,558.0505,558.0508,0.111328125,-0.407226563,0,0,0,,0,199,199,10,1,,,,,
,,,,,,f586470b3f0b1890e6311fb6,66a626ef09d4e21e1a8894ec,6734e04085a487704a4dbc87,2024-11-13_11h26.05.767,Tarea de género gramatical,2024.2.2,Win32,30.03003003,,,,,,,,,,,,,,,,,,,,,,,,558.0525,559.2174,l,1,0.468,,[],[],[],[],[],[],[],0.468,1,559.2176,559.7171,,,,,,652,MAS,CON,150,honor,,l,559.7196,559.7216,0.111328125,-0.407226563,0,0,0,,0,200,200,201,1,,,,,
,,,,,,f586470b3f0b1890e6311fb6,66a626ef09d4e21e1a8894ec,6734e04085a487704a4dbc87,2024-11-13_11h26.05.767,Tarea de género gramatical,2024.2.2,Win32,30.03003003,,,,,,,,,,,,,,,,,,,,,,,,559.7228,561.0173,l,1,0.6208,,[],[],[],[],[],[],[],0.6208,1,561.0175,561.5171,,,,,,604,MAS,CON,150,padre,,l,561.5172,561.5175,0.111328125,-0.407226563,0,0,0,,0,201,201,153,1,,,,,
,,,,,,f586470b3f0b1890e6311fb6,66a626ef09d4e21e1a8894ec,6734e04085a487704a4dbc87,2024-11-13_11h26.05.767,Tarea de género gramatical,2024.2.2,Win32,30.03003003,,,,,,,,,,,,,,,,,,,,,,,,561.5195,562.5508,l,1,0.3369,,[],[],[],[],[],[],[],0.3369,1,562.5509,563.0508,,,,,,528,MAS,AGR,150,oído,el,l,563.0509,563.0511,0.111328125,-0.407226563,0,0,0,,0,202,202,77,1,,,,,
,,,,,,f586470b3f0b1890e6311fb6,66a626ef09d4e21e1a8894ec,6734e04085a487704a4dbc87,2024-11-13_11h26.05.767,Tarea de género gramatical,2024.2.2,Win32,30.03003003,,,,,,,,,,,,,,,,,,,,,,,,563.053,564.0839,l,1,0.3405,,[],[],[],[],[],[],[],0.3405,1,564.084,564.584,,,,,,893,MAS,DIS,150,templo,la,l,564.5841,564.5843,0.111328125,-0.407226563,0,0,0,,0,203,203,442,1,,,,,
,,,,,,f586470b3f0b1890e6311fb6,66a626ef09d4e21e1a8894ec,6734e04085a487704a4dbc87,2024-11-13_11h26.05.767,Tarea de género gramatical,2024.2.2,Win32,30.03003003,,,,,,,,,,,,,,,,,,,,,,,,564.5862,565.5841,l,1,0.3132,,[],[],[],[],[],[],[],0.3132,1,565.5843,566.0841,,,,,,672,MAS,AGR,150,valor,el,l,566.0866,566.089,0.111328125,-0.407226563,0,0,0,,0,204,204,221,1,,,,,
,,,,,,f586470b3f0b1890e6311fb6,66a626ef09d4e21e1a8894ec,6734e04085a487704a4dbc87,2024-11-13_11h26.05.767,Tarea de género gramatical,2024.2.2,Win32,30.03003003,,,,,,,,,,,,,,,,,,,,,,,,566.0903,567.3509,l,0,0.5719,,[],[],[],[],[],[],[],0.5719,0,567.3525,567.8509,,,,,,560,FEM,DIS,150,rosa,el,a,567.8509,567.8511,0.111328125,-0.407226563,0,0,0,,0,205,205,109,1,,,,,
,,,,,,f586470b3f0b1890e6311fb6,66a626ef09d4e21e1a8894ec,6734e04085a487704a4dbc87,2024-11-13_11h26.05.767,Tarea de género gramatical,2024.2.2,Win32,30.03003003,,,,,,,,,,,,,,,,,,,,,,,,567.853,569.5178,l,1,0.9683,,[],[],[],[],[],[],[],0.9683,1,569.5191,570.0175,,,,,,754,MAS,CON,150,tiempo,,l,570.0175,570.0177,0.111328125,-0.407226563,0,0,0,,0,206,206,303,1,,,,,
,,,,,,f586470b3f0b1890e6311fb6,66a626ef09d4e21e1a8894ec,6734e04085a487704a4dbc87,2024-11-13_11h26.05.767,Tarea de género gramatical,2024.2.2,Win32,30.03003003,,,,,,,,,,,,,,,,,,,,,,,,570.0197,571.5842,l,1,0.8877,,[],[],[],[],[],[],[],0.8877,1,571.5844,572.0842,,,,,,514,MAS,CON,150,saco,,l,572.0843,572.0846,0.111328125,-0.407226563,0,0,0,,0,207,207,63,1,,,,,
,,,,,,f586470b3f0b1890e6311fb6,66a626ef09d4e21e1a8894ec,6734e04085a487704a4dbc87,2024-11-13_11h26.05.767,Tarea de género gramatical,2024.2.2,Win32,30.03003003,,,,,,,,,,,,,,,,,,,,,,,,572.0865,573.1513,l,1,0.3868,,[],[],[],[],[],[],[],0.3868,1,573.1514,573.6513,,,,,,616,MAS,CON,150,coche,,l,573.6513,573.6517,0.111328125,-0.407226563,0,0,0,,0,208,208,165,1,,,,,
,,,,,,f586470b3f0b1890e6311fb6,66a626ef09d4e21e1a8894ec,6734e04085a487704a4dbc87,2024-11-13_11h26.05.767,Tarea de género gramatical,2024.2.2,Win32,30.03003003,,,,,,,,,,,,,,,,,,,,,,,,573.6537,575.1179,l,1,0.7673,,[],[],[],[],[],[],[],0.7673,1,575.1181,575.618,,,,,,455,MAS,DIS,150,tipo,la,l,575.6206,575.6228,0.111328125,-0.407226563,0,0,0,,0,209,209,4,1,,,,,
,,,,,,f586470b3f0b1890e6311fb6,66a626ef09d4e21e1a8894ec,6734e04085a487704a4dbc87,2024-11-13_11h26.05.767,Tarea de género gramatical,2024.2.2,Win32,30.03003003,,,,,,,,,,,,,,,,,,,,,,,,575.6242,576.7514,l,1,0.4547,,[],[],[],[],[],[],[],0.4547,1,576.7515,577.2514,,,,,,594,MAS,AGR,150,amor,el,l,577.2515,577.2517,0.111328125,-0.407226563,0,0,0,,0,210,210,143,1,,,,,
,,,,,,f586470b3f0b1890e6311fb6,66a626ef09d4e21e1a8894ec,6734e04085a487704a4dbc87,2024-11-13_11h26.05.767,Tarea de género gramatical,2024.2.2,Win32,30.03003003,,,,,,,,,,,,,,,,,,,,,,,,577.2537,578.4513,a,1,0.5118,,[],[],[],[],[],[],[],0.5118,1,578.4514,578.951,,,,,,487,FEM,CON,150,sala,,a,578.951,578.9512,0.111328125,-0.407226563,0,0,0,,0,211,211,36,1,,,,,
,,,,,,f586470b3f0b1890e6311fb6,66a626ef09d4e21e1a8894ec,6734e04085a487704a4dbc87,2024-11-13_11h26.05.767,Tarea de género gramatical,2024.2.2,Win32,30.03003003,,,,,,,,,,,,,,,,,,,,,,,,578.9533,580.0181,l,1,0.3836,,[],[],[],[],[],[],[],0.3836,1,580.0183,580.5183,,,,,,714,MAS,AGR,150,pollo,el,l,580.5183,580.5186,0.111328125,-0.407226563,0,0,0,,0,212,212,263,1,,,,,
,,,,,,f586470b3f0b1890e6311fb6,66a626ef09d4e21e1a8894ec,6734e04085a487704a4dbc87,2024-11-13_11h26.05.767,Tarea de género gramatical,2024.2.2,Win32,30.03003003,,,,,,,,,,,,,,,,,,,,,,,,580.5205,581.4512,l,1,0.2578,,[],[],[],[],[],[],[],0.2578,1,581.4513,581.9514,,,,,,665,MAS,DIS,150,hueso,la,l,581.9537,581.9557,0.111328125,-0.407226563,0,0,0,,0,213,213,214,1,,,,,
,,,,,,f586470b3f0b1890e6311fb6,66a626ef09d4e21e1a8894ec,6734e04085a487704a4dbc87,2024-11-13_11h26.05.767,Tarea de género gramatical,2024.2.2,Win32,30.03003003,,,,,,,,,,,,,,,,,,,,,,,,581.9579,583.1181,l,1,0.484,,[],[],[],[],[],[],[],0.484,1,583.1182,583.6185,,,,,,581,MAS,DIS,150,kilo,la,l,583.6185,583.6187,0.111328125,-0.407226563,0,0,0,,0,214,214,130,1,,,,,
,,,,,,f586470b3f0b1890e6311fb6,66a626ef09d4e21e1a8894ec,6734e04085a487704a4dbc87,2024-11-13_11h26.05.767,Tarea de género gramatical,2024.2.2,Win32,30.03003003,,,,,,,,,,,,,,,,,,,,,,,,583.6208,584.8846,a,1,0.5676,,[],[],[],[],[],[],[],0.5676,1,584.8848,585.3851,,,,,,860,FEM,DIS,150,piedad,el,a,585.3852,585.3854,0.111328125,-0.407226563,0,0,0,,0,215,215,409,1,,,,,
,,,,,,f586470b3f0b1890e6311fb6,66a626ef09d4e21e1a8894ec,6734e04085a487704a4dbc87,2024-11-13_11h26.05.767,Tarea de género gramatical,2024.2.2,Win32,30.03003003,,,,,,,,,,,,,,,,,,,,,,,,585.3874,586.7183,l,1,0.6407,,[],[],[],[],[],[],[],0.6407,1,586.7185,587.2186,,,,,,838,MAS,CON,150,empleo,,l,587.2186,587.2187,0.111328125,-0.407226563,0,0,0,,0,216,216,387,1,,,,,
,,,,,,f586470b3f0b1890e6311fb6,66a626ef09d4e21e1a8894ec,6734e04085a487704a4dbc87,2024-11-13_11h26.05.767,Tarea de género gramatical,2024.2.2,Win32,30.03003003,,,,,,,,,,,,,,,,,,,,,,,,587.2208,588.3186,l,1,0.4064,,[],[],[],[],[],[],[],0.4064,1,588.3188,588.8187,,,,,,701,MAS,DIS,150,dueño,la,l,588.8188,588.819,0.111328125,-0.407226563,0,0,0,,0,217,217,250,1,,,,,
,,,,,,f586470b3f0b1890e6311fb6,66a626ef09d4e21e1a8894ec,6734e04085a487704a4dbc87,2024-11-13_11h26.05.767,Tarea de género gramatical,2024.2.2,Win32,30.03003003,,,,,,,,,,,,,,,,,,,,,,,,588.8209,589.8187,l,1,0.3008,,[],[],[],[],[],[],[],0.3008,1,589.8189,590.3185,,,,,,472,MAS,CON,150,pelo,,l,590.321,590.3231,0.111328125,-0.407226563,0,0,0,,0,218,218,21,1,,,,,
,,,,,,f586470b3f0b1890e6311fb6,66a626ef09d4e21e1a8894ec,6734e04085a487704a4dbc87,2024-11-13_11h26.05.767,Tarea de género gramatical,2024.2.2,Win32,30.03003003,,,,,,,,,,,,,,,,,,,,,,,,590.3244,591.5192,a,1,0.5253,,[],[],[],[],[],[],[],0.5253,1,591.5194,592.0189,,,,,,812,FEM,DIS,150,fuente,el,a,592.019,592.0194,0.111328125,-0.407226563,0,0,0,,0,219,219,361,1,,,,,
,,,,,,f586470b3f0b1890e6311fb6,66a626ef09d4e21e1a8894ec,6734e04085a487704a4dbc87,2024-11-13_11h26.05.767,Tarea de género gramatical,2024.2.2,Win32,30.03003003,,,,,,,,,,,,,,,,,,,,,,,,592.0212,593.319,l,1,0.6111,,[],[],[],[],[],[],[],0.6111,1,593.3191,593.8194,,,,,,832,MAS,CON,150,teatro,,l,593.8195,593.8197,0.111328125,-0.407226563,0,0,0,,0,220,220,381,1,,,,,
,,,,,,f586470b3f0b1890e6311fb6,66a626ef09d4e21e1a8894ec,6734e04085a487704a4dbc87,2024-11-13_11h26.05.767,Tarea de género gramatical,2024.2.2,Win32,30.03003003,,,,,,,,,,,,,,,,,,,,,,,,593.8216,594.8525,l,1,0.3346,,[],[],[],[],[],[],[],0.3346,1,594.8526,595.3524,,,,,,516,MAS,AGR,150,muro,el,l,595.3526,595.3527,0.111328125,-0.407226563,0,0,0,,0,221,221,65,1,,,,,
,,,,,,f586470b3f0b1890e6311fb6,66a626ef09d4e21e1a8894ec,6734e04085a487704a4dbc87,2024-11-13_11h26.05.767,Tarea de género gramatical,2024.2.2,Win32,30.03003003,,,,,,,,,,,,,,,,,,,,,,,,595.3546,596.6192,a,1,0.5705,,[],[],[],[],[],[],[],0.5705,1,596.6193,597.1189,,,,,,577,FEM,CON,150,cuna,,a,597.1214,597.1233,0.111328125,-0.407226563,0,0,0,,0,222,222,126,1,,,,,
,,,,,,f586470b3f0b1890e6311fb6,66a626ef09d4e21e1a8894ec,6734e04085a487704a4dbc87,2024-11-13_11h26.05.767,Tarea de género gramatical,2024.2.2,Win32,30.03003003,,,,,,,,,,,,,,,,,,,,,,,,597.1246,598.2859,l,1,0.4675,,[],[],[],[],[],[],[],0.4675,1,598.286,598.7858,,,,,,862,MAS,CON,150,espejo,,l,598.7858,598.786,0.111328125,-0.407226563,0,0,0,,0,223,223,411,1,,,,,
,,,,,,f586470b3f0b1890e6311fb6,66a626ef09d4e21e1a8894ec,6734e04085a487704a4dbc87,2024-11-13_11h26.05.767,Tarea de género gramatical,2024.2.2,Win32,30.03003003,,,,,,,,,,,,,,,,,,,,,,,,598.7879,599.9189,a,1,0.4343,,[],[],[],[],[],[],[],0.4343,1,599.919,600.4194,,,,,,745,FEM,CON,150,grasa,,a,600.4195,600.4196,0.111328125,-0.407226563,0,0,0,,0,224,224,294,1,,,,,
,,,,,,f586470b3f0b1890e6311fb6,66a626ef09d4e21e1a8894ec,6734e04085a487704a4dbc87,2024-11-13_11h26.05.767,Tarea de género gramatical,2024.2.2,Win32,30.03003003,,,,,,,,,,,,,,,,,,,,,,,,600.4217,601.8523,l,1,0.7338,,[],[],[],[],[],[],[],0.7338,1,601.8524,602.3525,,,,,,587,MAS,DIS,150,coco,la,l,602.3526,602.3528,0.111328125,-0.407226563,0,0,0,,0,225,225,136,1,,,,,
,,,,,,f586470b3f0b1890e6311fb6,66a626ef09d4e21e1a8894ec,6734e04085a487704a4dbc87,2024-11-13_11h26.05.767,Tarea de género gramatical,2024.2.2,Win32,30.03003003,,,,,,,,,,,,,,,,,,,,,,,,602.3548,603.4863,a,1,0.4443,,[],[],[],[],[],[],[],0.4443,1,603.4864,603.9863,,,,,,597,FEM,AGR,150,grúa,la,a,603.9864,603.9866,0.111328125,-0.407226563,0,0,0,,0,226,226,146,1,,,,,
,,,,,,f586470b3f0b1890e6311fb6,66a626ef09d4e21e1a8894ec,6734e04085a487704a4dbc87,2024-11-13_11h26.05.767,Tarea de género gramatical,2024.2.2,Win32,30.03003003,,,,,,,,,,,,,,,,,,,,,,,,603.9888,605.3864,l,1,0.701,,[],[],[],[],[],[],[],0.701,1,605.3865,605.886,,,,,,467,MAS,DIS,150,modo,la,l,605.8886,605.8906,0.111328125,-0.407226563,0,0,0,,0,227,227,16,1,,,,,
,,,,,,f586470b3f0b1890e6311fb6,66a626ef09d4e21e1a8894ec,6734e04085a487704a4dbc87,2024-11-13_11h26.05.767,Tarea de género gramatical,2024.2.2,Win32,30.03003003,,,,,,,,,,,,,,,,,,,,,,,,605.8919,606.9865,l,1,0.4005,,[],[],[],[],[],[],[],0.4005,1,606.9866,607.4866,,,,,,576,MAS,AGR,150,lazo,el,l,607.4867,607.4869,0.111328125,-0.407226563,0,0,0,,0,228,228,125,1,,,,,
,,,,,,f586470b3f0b1890e6311fb6,66a626ef09d4e21e1a8894ec,6734e04085a487704a4dbc87,2024-11-13_11h26.05.767,Tarea de género gramatical,2024.2.2,Win32,30.03003003,,,,,,,,,,,,,,,,,,,,,,,,607.4888,608.4864,l,1,0.304,,[],[],[],[],[],[],[],0.304,1,608.4867,608.9865,,,,,,826,MAS,CON,150,efecto,,l,608.9866,608.9867,0.111328125,-0.407226563,0,0,0,,0,229,229,375,1,,,,,
,,,,,,f586470b3f0b1890e6311fb6,66a626ef09d4e21e1a8894ec,6734e04085a487704a4dbc87,2024-11-13_11h26.05.767,Tarea de género gramatical,2024.2.2,Win32,30.03003003,,,,,,,,,,,,,,,,,,,,,,,,608.9888,610.0534,a,1,0.3688,,[],[],[],[],[],[],[],0.3688,1,610.0536,610.5533,,,,,,476,FEM,DIS,150,pena,el,a,610.5534,610.5535,0.111328125,-0.407226563,0,0,0,,0,230,230,25,1,,,,,
,,,,,,f586470b3f0b1890e6311fb6,66a626ef09d4e21e1a8894ec,6734e04085a487704a4dbc87,2024-11-13_11h26.05.767,Tarea de género gramatical,2024.2.2,Win32,30.03003003,,,,,,,,,,,,,,,,,,,,,,,,610.5559,611.6868,l,1,0.434,,[],[],[],[],[],[],[],0.434,1,611.687,612.1865,,,,,,485,MAS,DIS,150,taxi,la,l,612.1891,612.1911,0.111328125,-0.407226563,0,0,0,,0,231,231,34,1,,,,,
,,,,,,f586470b3f0b1890e6311fb6,66a626ef09d4e21e1a8894ec,6734e04085a487704a4dbc87,2024-11-13_11h26.05.767,Tarea de género gramatical,2024.2.2,Win32,30.03003003,,,,,,,,,,,,,,,,,,,,,,,,612.1923,613.4195,a,1,0.5465,,[],[],[],[],[],[],[],0.5465,1,613.4196,613.9203,,,,,,649,FEM,CON,150,nariz,,a,613.9204,613.9207,0.111328125,-0.407226563,0,0,0,,0,232,232,198,1,,,,,
,,,,,,f586470b3f0b1890e6311fb6,66a626ef09d4e21e1a8894ec,6734e04085a487704a4dbc87,2024-11-13_11h26.05.767,Tarea de género gramatical,2024.2.2,Win32,30.03003003,,,,,,,,,,,,,,,,,,,,,,,,613.9226,614.9194,l,1,0.3221,,[],[],[],[],[],[],[],0.3221,1,614.9195,615.4197,,,,,,654,MAS,AGR,150,papel,el,l,615.4198,615.4199,0.111328125,-0.407226563,0,0,0,,0,233,233,203,1,,,,,
,,,,,,f586470b3f0b1890e6311fb6,66a626ef09d4e21e1a8894ec,6734e04085a487704a4dbc87,2024-11-13_11h26.05.767,Tarea de género gramatical,2024.2.2,Win32,30.03003003,,,,,,,,,,,,,,,,,,,,,,,,615.4215,616.5529,a,1,0.4444,,[],[],[],[],[],[],[],0.4444,1,616.5531,617.053,,,,,,758,FEM,DIS,150,semana,el,a,617.0531,617.0533,0.111328125,-0.407226563,0,0,0,,0,234,234,307,1,,,,,
,,,,,,f586470b3f0b1890e6311fb6,66a626ef09d4e21e1a8894ec,6734e04085a487704a4dbc87,2024-11-13_11h26.05.767,Tarea de género gramatical,2024.2.2,Win32,30.03003003,,,,,,,,,,,,,,,,,,,,,,,,617.0551,618.1534,l,1,0.401,,[],[],[],[],[],[],[],0.401,1,618.1535,618.6545,,,,,,820,MAS,CON,150,seguro,,l,618.6546,618.6547,0.111328125,-0.407226563,0,0,0,,0,235,235,369,1,,,,,
,,,,,,f586470b3f0b1890e6311fb6,66a626ef09d4e21e1a8894ec,6734e04085a487704a4dbc87,2024-11-13_11h26.05.767,Tarea de género gramatical,2024.2.2,Win32,30.03003003,,,,,,,,,,,,,,,,,,,,,,,,618.6565,619.6872,l,1,0.3447,,[],[],[],[],[],[],[],0.3447,1,619.6873,620.1872,,,,,,636,MAS,AGR,150,error,el,l,620.1898,620.1917,0.111328125,-0.407226563,0,0,0,,0,236,236,185,1,,,,,
,,,,,,f586470b3f0b1890e6311fb6,66a626ef09d4e21e1a8894ec,6734e04085a487704a4dbc87,2024-11-13_11h26.05.767,Tarea de género gramatical,2024.2.2,Win32,30.03003003,,,,,,,,,,,,,,,,,,,,,,,,620.1931,621.3205,l,1,0.4516,,[],[],[],[],[],[],[],0.4516,1,621.3206,621.8205,,,,,,791,MAS,DIS,150,precio,la,l,621.8207,621.8209,0.111328125,-0.407226563,0,0,0,,0,237,237,340,1,,,,,
,,,,,,f586470b3f0b1890e6311fb6,66a626ef09d4e21e1a8894ec,6734e04085a487704a4dbc87,2024-11-13_11h26.05.767,Tarea de género gramatical,2024.2.2,Win32,30.03003003,,,,,,,,,,,,,,,,,,,,,,,,621.8231,622.887,a,1,0.3678,,[],[],[],[],[],[],[],0.3678,1,622.8871,623.3876,,,,,,801,FEM,AGR,150,espada,la,a,623.3877,623.3879,0.111328125,-0.407226563,0,0,0,,0,238,238,350,1,,,,,
,,,,,,f586470b3f0b1890e6311fb6,66a626ef09d4e21e1a8894ec,6734e04085a487704a4dbc87,2024-11-13_11h26.05.767,Tarea de género gramatical,2024.2.2,Win32,30.03003003,,,,,,,,,,,,,,,,,,,,,,,,623.3898,624.4208,l,1,0.342,,[],[],[],[],[],[],[],0.342,1,624.4209,624.9203,,,,,,676,MAS,CON,150,color,,l,624.9203,624.9204,0.111328125,-0.407226563,0,0,0,,0,239,239,225,1,,,,,
,,,,,,f586470b3f0b1890e6311fb6,66a626ef09d4e21e1a8894ec,6734e04085a487704a4dbc87,2024-11-13_11h26.05.767,Tarea de género gramatical,2024.2.2,Win32,30.03003003,,,,,,,,,,,,,,,,,,,,,,,,624.9223,626.0208,l,0,0.4051,,[],[],[],[],[],[],[],0.4051,0,626.0223,626.5209,,,,,,602,FEM,DIS,150,gente,el,a,626.5232,626.5254,0.111328125,-0.407226563,0,0,0,,0,240,240,151,1,,,,,
,,,,,,f586470b3f0b1890e6311fb6,66a626ef09d4e21e1a8894ec,6734e04085a487704a4dbc87,2024-11-13_11h26.05.767,Tarea de género gramatical,2024.2.2,Win32,30.03003003,,,,,,,,,,,,,,,,,,,,,,,,626.5267,627.687,l,1,0.4714,,[],[],[],[],[],[],[],0.4714,1,627.6884,628.1873,,,,,,880,MAS,CON,150,título,,l,628.1873,628.1876,0.111328125,-0.407226563,0,0,0,,0,241,241,429,1,,,,,
,,,,,,f586470b3f0b1890e6311fb6,66a626ef09d4e21e1a8894ec,6734e04085a487704a4dbc87,2024-11-13_11h26.05.767,Tarea de género gramatical,2024.2.2,Win32,30.03003003,,,,,,,,,,,,,,,,,,,,,,,,628.1894,629.321,l,1,0.4341,,[],[],[],[],[],[],[],0.4341,1,629.3212,629.821,,,,,,617,MAS,DIS,150,juego,la,l,629.821,629.8212,0.111328125,-0.407226563,0,0,0,,0,242,242,166,1,,,,,
,,,,,,f586470b3f0b1890e6311fb6,66a626ef09d4e21e1a8894ec,6734e04085a487704a4dbc87,2024-11-13_11h26.05.767,Tarea de género gramatical,2024.2.2,Win32,30.03003003,,,,,,,,,,,,,,,,,,,,,,,,629.8232,630.8546,l,1,0.3354,,[],[],[],[],[],[],[],0.3354,1,630.8547,631.3545,,,,,,630,MAS,AGR,150,fuego,el,l,631.3546,631.3549,0.111328125,-0.407226563,0,0,0,,0,243,243,179,1,,,,,
,,,,,,f586470b3f0b1890e6311fb6,66a626ef09d4e21e1a8894ec,6734e04085a487704a4dbc87,2024-11-13_11h26.05.767,Tarea de género gramatical,2024.2.2,Win32,30.03003003,,,,,,,,,,,,,,,,,,,,,,,,631.3567,632.4545,l,1,0.4218,,[],[],[],[],[],[],[],0.4218,1,632.4546,632.9541,,,,,,562,MAS,CON,150,reto,,l,632.9543,632.9544,0.111328125,-0.407226563,0,0,0,,0,244,244,111,1,,,,,
,,,,,,f586470b3f0b1890e6311fb6,66a626ef09d4e21e1a8894ec,6734e04085a487704a4dbc87,2024-11-13_11h26.05.767,Tarea de género gramatical,2024.2.2,Win32,30.03003003,,,,,,,,,,,,,,,,,,,,,,,,632.9564,634.0214,l,1,0.3675,,[],[],[],[],[],[],[],0.3675,1,634.0216,634.5214,,,,,,622,MAS,CON,150,poder,,l,634.5238,634.526,0.111328125,-0.407226563,0,0,0,,0,245,245,171,1,,,,,
,,,,,,f586470b3f0b1890e6311fb6,66a626ef09d4e21e1a8894ec,6734e04085a487704a4dbc87,2024-11-13_11h26.05.767,Tarea de género gramatical,2024.2.2,Win32,30.03003003,,,,,,,,,,,,,,,,,,,,,,,,634.5273,635.6547,a,1,0.4359,,[],[],[],[],[],[],[],0.4359,1,635.6549,636.1547,,,,,,770,FEM,DIS,150,fiesta,el,a,636.1548,636.155,0.111328125,-0.407226563,0,0,0,,0,246,246,319,1,,,,,
,,,,,,f586470b3f0b1890e6311fb6,66a626ef09d4e21e1a8894ec,6734e04085a487704a4dbc87,2024-11-13_11h26.05.767,Tarea de género gramatical,2024.2.2,Win32,30.03003003,,,,,,,,,,,,,,,,,,,,,,,,636.1571,637.2877,l,1,0.4381,,[],[],[],[],[],[],[],0.4381,1,637.2879,637.7878,,,,,,773,MAS,DIS,150,marido,la,l,637.7879,637.788,0.111328125,-0.407226563,0,0,0,,0,247,247,322,1,,,,,
,,,,,,f586470b3f0b1890e6311fb6,66a626ef09d4e21e1a8894ec,6734e04085a487704a4dbc87,2024-11-13_11h26.05.767,Tarea de género gramatical,2024.2.2,Win32,30.03003003,,,,,,,,,,,,,,,,,,,,,,,,637.79,638.8875,l,1,0.4249,,[],[],[],[],[],[],[],0.4249,1,638.8877,639.3884,,,,,,586,MAS,CON,150,vago,,l,639.3885,639.3888,0.111328125,-0.407226563,0,0,0,,0,248,248,135,1,,,,,
,,,,,,f586470b3f0b1890e6311fb6,66a626ef09d4e21e1a8894ec,6734e04085a487704a4dbc87,2024-11-13_11h26.05.767,Tarea de género gramatical,2024.2.2,Win32,30.03003003,,,,,,,,,,,,,,,,,,,,,,,,639.3908,640.6214,a,1,0.5538,,[],[],[],[],[],[],[],0.5538,1,640.6216,641.1217,,,,,,525,FEM,AGR,150,caza,la,a,641.1242,641.1264,0.111328125,-0.407226563,0,0,0,,0,249,249,74,1,,,,,
,,,,,,f586470b3f0b1890e6311fb6,66a626ef09d4e21e1a8894ec,6734e04085a487704a4dbc87,2024-11-13_11h26.05.767,Tarea de género gramatical,2024.2.2,Win32,30.03003003,,,,,,,,,,,,,,,,,,,,,,,,641.1277,642.2549,a,1,0.4338,,[],[],[],[],[],[],[],0.4338,1,642.2551,642.7553,,,,,,854,FEM,DIS,150,gloria,el,a,642.7553,642.7556,0.111328125,-0.407226563,0,0,0,,0,250,250,403,1,,,,,
