counterbalancing_condition,consent_prescreening.block_1/declare_consent,consent_prescreening.block_1/age_years,consent_prescreening.block_1/gender,consent_prescreening.block_1/language_disorder,consent_prescreening.block_1/first_language,PROLIFIC_PID,STUDY_ID,SESSION_ID,date,expName,psychopyVersion,OS,frameRate,check_prescreening_answers.started,check_prescreening_answers.stopped,Instructions.started,Instructions.stopped,instr_done_keyboard.keys,instr_done_touch.x,instr_done_touch.y,instr_done_touch.leftButton,instr_done_touch.midButton,instr_done_touch.rightButton,instr_done_touch.clicked_name,instruction_pages.thisRepN,instruction_pages.thisTrialN,instruction_pages.thisN,instruction_pages.thisIndex,instruction_pages.ran,pageN,phase,instruct_text,has_image,instruct_image,instr_done_keyboard.rt,instr_done_keyboard.duration,presentTrial.started,presentTrial.stopped,response.keys,response.corr,touch_resp.x,touch_resp.y,touch_resp.leftButton,touch_resp.midButton,touch_resp.rightButton,touch_resp.time,touch_resp.clicked_name,rt,corr,feedback.started,feedback.stopped,practice_trials.thisRepN,practice_trials.thisTrialN,practice_trials.thisN,practice_trials.thisIndex,practice_trials.ran,TrialID,StimulusType,Condition,PrimeDuration,Prime,Flanker,corrAns,response.rt,response.duration,Break.started,Break.stopped,break_done_touch.x,break_done_touch.y,break_done_touch.leftButton,break_done_touch.midButton,break_done_touch.rightButton,break_done_keyboard.keys,experiment_trials.thisRepN,experiment_trials.thisTrialN,experiment_trials.thisN,experiment_trials.thisIndex,experiment_trials.ran,break_done_keyboard.rt,break_done_keyboard.duration,End.started,End.stopped
2,"[""over_18"",""comfortable"",""read_info"",""consent_given""]",30,F,"[""none""]","[""spanish""]",f78c49e87d14e30a4578b904,66a626ef09d4e21e1a8894ec,673497ca168457b338178485,2024-11-13_06h15.55.615,Tarea de género gramatical,2024.2.2,Win32,59.88023952,,,,,,,,,,,,,,,,,,,,,,,,,,,,,,,,,,,,,,,,,,,,,,,,,,,,,,,,,,,,,,,,,,,,,
,,,,,,f78c49e87d14e30a4578b904,66a626ef09d4e21e1a8894ec,673497ca168457b338178485,2024-11-13_06h15.55.615,Tarea de género gramatical,2024.2.2,Win32,59.88023952,17.2757,17.2758,,,,,,,,,,,,,,,,,,,,,,,,,,,,,,,,,,,,,,,,,,,,,,,,,,,,,,,,,,,,,,,,,,,
,,,,,,f78c49e87d14e30a4578b904,66a626ef09d4e21e1a8894ec,673497ca168457b338178485,2024-11-13_06h15.55.615,Tarea de género gramatical,2024.2.2,Win32,59.88023952,,,17.2926,34.1303,,0.026851852,-0.416666667,1,0,0,instr_done_button,0,0,0,0,1,1,instructions,"INSTRUCCIONES
Va a realizar una prueba de selección gramatical. Desde el comienzo de la prueba mire siempre al centro de la pantalla. Al cabo de un momento, aparecerán palabras. La tarea consiste en determinar si la palabra del centro (siempre será un sustantivo), pertenece al género masculino o femenino.

Pulse la tecla ESPACIO o toque el botón de abajo para continuar.",0,keyboardresponseMF.png,,,,,,,,,,,,,,,,,,,,,,,,,,,,,,,,,,,,,,,,,,,,,,,,
,,,,,,f78c49e87d14e30a4578b904,66a626ef09d4e21e1a8894ec,673497ca168457b338178485,2024-11-13_06h15.55.615,Tarea de género gramatical,2024.2.2,Win32,59.88023952,,,34.6849,51.2132,space,0.497222222,-0.29537037,0,0,0,,0,1,1,1,1,2,instructions,"Si su dispositivo tiene teclado, pulse la tecla ""A"" para las palabras en masculino (por ejemplo: ""arroz"") y la tecla ""L"" para las palabras en femenino (por ejemplo: ""mano"").
Pulse la tecla ESPACIO o toque el botón de abajo para continuar.",1,keyboardresponseMF.png,16.4514,,,,,,,,,,,,,,,,,,,,,,,,,,,,,,,,,,,,,,,,,,,,,,,
,,,,,,f78c49e87d14e30a4578b904,66a626ef09d4e21e1a8894ec,673497ca168457b338178485,2024-11-13_06h15.55.615,Tarea de género gramatical,2024.2.2,Win32,59.88023952,,,51.2149,58.2129,space,0.901851852,0.008333333,0,0,0,,0,2,2,2,1,3,instructions,"Si utiliza un dispositivo sólo táctil, colóquelo en horizontal y utilice los botones de la pantalla. No utilice el ratón.
Pulse la tecla ESPACIO o toque el botón de abajo para continuar.",2,touchresponseMF.png,6.9622,,,,,,,,,,,,,,,,,,,,,,,,,,,,,,,,,,,,,,,,,,,,,,,
,,,,,,f78c49e87d14e30a4578b904,66a626ef09d4e21e1a8894ec,673497ca168457b338178485,2024-11-13_06h15.55.615,Tarea de género gramatical,2024.2.2,Win32,59.88023952,,,58.215,70.4801,space,0.901851852,0.008333333,0,0,0,,0,3,3,3,1,4,instructions,"Es muy importante que responda con la mayor rapidez y precisión posibles, ya que cada cadena de letras sólo estará en pantalla durante un instante. Si no responde en ese tiempo, aparecerá el mensaje ""Muy lento"" y el experimento pasará a la siguiente palabra. Los primeros 15 intentos serán de práctica y habrá dos descansos durante la prueba.
Pulse la tecla ESPACIO o toque el botón de abajo para iniciar la parte de práctica.",0,keyboardresponseMF.png,12.251,,,,,,,,,,,,,,,,,,,,,,,,,,,,,,,,,,,,,,,,,,,,,,,
,,,,,,f78c49e87d14e30a4578b904,66a626ef09d4e21e1a8894ec,673497ca168457b338178485,2024-11-13_06h15.55.615,Tarea de género gramatical,2024.2.2,Win32,59.88023952,,,,,,,,,,,,,,,,,,,,,,,,70.5073,73.1467,,0,[],[],[],[],[],[],[],,-1,73.1468,73.6464,0,0,0,13,1,2014,MAS,CON,150,siglo,,l,,,,,,,,,,,,,,,,,,,
,,,,,,f78c49e87d14e30a4578b904,66a626ef09d4e21e1a8894ec,673497ca168457b338178485,2024-11-13_06h15.55.615,Tarea de género gramatical,2024.2.2,Win32,59.88023952,,,,,,,,,,,,,,,,,,,,,,,,73.648,74.9797,l,0,[],[],[],[],[],[],[],0.651,0,74.9898,75.4796,0,1,1,14,1,2015,MAS,DIS,150,robot,la,l,0.651,,,,,,,,,,,,,,,,,,
,,,,,,f78c49e87d14e30a4578b904,66a626ef09d4e21e1a8894ec,673497ca168457b338178485,2024-11-13_06h15.55.615,Tarea de género gramatical,2024.2.2,Win32,59.88023952,,,,,,,,,,,,,,,,,,,,,,,,75.4806,76.7133,a,0,[],[],[],[],[],[],[],0.55,0,76.7135,77.2128,0,2,2,5,1,2006,FEM,DIS,150,serie,el,a,0.55,,,,,,,,,,,,,,,,,,
,,,,,,f78c49e87d14e30a4578b904,66a626ef09d4e21e1a8894ec,673497ca168457b338178485,2024-11-13_06h15.55.615,Tarea de género gramatical,2024.2.2,Win32,59.88023952,,,,,,,,,,,,,,,,,,,,,,,,77.214,78.663,l,0,[],[],[],[],[],[],[],0.7676,0,78.6632,79.163,0,3,3,11,1,2012,MAS,DIS,150,clima,la,l,0.7676,,,,,,,,,,,,,,,,,,
,,,,,,f78c49e87d14e30a4578b904,66a626ef09d4e21e1a8894ec,673497ca168457b338178485,2024-11-13_06h15.55.615,Tarea de género gramatical,2024.2.2,Win32,59.88023952,,,,,,,,,,,,,,,,,,,,,,,,79.1645,80.4462,l,1,[],[],[],[],[],[],[],0.601,1,80.4473,80.9465,0,4,4,2,1,2003,FEM,DIS,150,daga,el,a,0.601,,,,,,,,,,,,,,,,,,
,,,,,,f78c49e87d14e30a4578b904,66a626ef09d4e21e1a8894ec,673497ca168457b338178485,2024-11-13_06h15.55.615,Tarea de género gramatical,2024.2.2,Win32,59.88023952,,,,,,,,,,,,,,,,,,,,,,,,80.9477,82.063,l,1,[],[],[],[],[],[],[],0.4338,1,82.0631,82.5635,0,5,5,0,1,2001,FEM,AGR,150,nuca,la,a,0.4338,,,,,,,,,,,,,,,,,,
,,,,,,f78c49e87d14e30a4578b904,66a626ef09d4e21e1a8894ec,673497ca168457b338178485,2024-11-13_06h15.55.615,Tarea de género gramatical,2024.2.2,Win32,59.88023952,,,,,,,,,,,,,,,,,,,,,,,,82.5657,83.713,a,1,[],[],[],[],[],[],[],0.4692,1,83.7132,84.213,0,6,6,12,1,2013,MAS,AGR,150,acero,el,l,0.4692,,,,,,,,,,,,,,,,,,
,,,,,,f78c49e87d14e30a4578b904,66a626ef09d4e21e1a8894ec,673497ca168457b338178485,2024-11-13_06h15.55.615,Tarea de género gramatical,2024.2.2,Win32,59.88023952,,,,,,,,,,,,,,,,,,,,,,,,84.2142,85.38,l,0,[],[],[],[],[],[],[],0.4846,0,85.3815,85.8796,0,7,7,8,1,2009,MAS,DIS,150,puerto,la,l,0.4846,,,,,,,,,,,,,,,,,,
,,,,,,f78c49e87d14e30a4578b904,66a626ef09d4e21e1a8894ec,673497ca168457b338178485,2024-11-13_06h15.55.615,Tarea de género gramatical,2024.2.2,Win32,59.88023952,,,,,,,,,,,,,,,,,,,,,,,,85.8807,87.0131,l,1,[],[],[],[],[],[],[],0.4559,1,87.0142,87.5129,0,8,8,4,1,2005,FEM,CON,150,placa,,a,0.4559,,,,,,,,,,,,,,,,,,
,,,,,,f78c49e87d14e30a4578b904,66a626ef09d4e21e1a8894ec,673497ca168457b338178485,2024-11-13_06h15.55.615,Tarea de género gramatical,2024.2.2,Win32,59.88023952,,,,,,,,,,,,,,,,,,,,,,,,87.5145,88.6296,l,1,[],[],[],[],[],[],[],0.434,1,88.6297,89.1296,0,9,9,6,1,2007,FEM,AGR,150,navaja,la,a,0.434,,,,,,,,,,,,,,,,,,
,,,,,,f78c49e87d14e30a4578b904,66a626ef09d4e21e1a8894ec,673497ca168457b338178485,2024-11-13_06h15.55.615,Tarea de género gramatical,2024.2.2,Win32,59.88023952,,,,,,,,,,,,,,,,,,,,,,,,89.1308,90.2633,l,1,[],[],[],[],[],[],[],0.4608,1,90.2634,90.763,0,10,10,7,1,2008,FEM,CON,150,siesta,,a,0.4608,,,,,,,,,,,,,,,,,,
,,,,,,f78c49e87d14e30a4578b904,66a626ef09d4e21e1a8894ec,673497ca168457b338178485,2024-11-13_06h15.55.615,Tarea de género gramatical,2024.2.2,Win32,59.88023952,,,,,,,,,,,,,,,,,,,,,,,,90.764,91.8298,a,1,[],[],[],[],[],[],[],0.3842,1,91.8299,92.3297,0,11,11,10,1,2011,MAS,CON,150,canal,,l,0.3842,,,,,,,,,,,,,,,,,,
,,,,,,f78c49e87d14e30a4578b904,66a626ef09d4e21e1a8894ec,673497ca168457b338178485,2024-11-13_06h15.55.615,Tarea de género gramatical,2024.2.2,Win32,59.88023952,,,,,,,,,,,,,,,,,,,,,,,,92.3309,93.4635,a,1,[],[],[],[],[],[],[],0.4556,1,93.4636,93.9631,0,12,12,9,1,2010,MAS,AGR,150,vecino,el,l,0.4556,,,,,,,,,,,,,,,,,,
,,,,,,f78c49e87d14e30a4578b904,66a626ef09d4e21e1a8894ec,673497ca168457b338178485,2024-11-13_06h15.55.615,Tarea de género gramatical,2024.2.2,Win32,59.88023952,,,,,,,,,,,,,,,,,,,,,,,,93.9641,95.1643,l,1,[],[],[],[],[],[],[],0.5276,1,95.1644,95.663,0,13,13,1,1,2002,FEM,CON,150,pala,,a,0.5276,,,,,,,,,,,,,,,,,,
,,,,,,f78c49e87d14e30a4578b904,66a626ef09d4e21e1a8894ec,673497ca168457b338178485,2024-11-13_06h15.55.615,Tarea de género gramatical,2024.2.2,Win32,59.88023952,,,,,,,,,,,,,,,,,,,,,,,,95.6641,96.8632,a,0,[],[],[],[],[],[],[],0.5211,0,96.8642,97.3631,0,14,14,3,1,2004,FEM,AGR,150,venta,la,a,0.5211,,,,,,,,,,,,,,,,,,
,,,,,,f78c49e87d14e30a4578b904,66a626ef09d4e21e1a8894ec,673497ca168457b338178485,2024-11-13_06h15.55.615,Tarea de género gramatical,2024.2.2,Win32,59.88023952,,,103.7487,113.5295,space,0.901851852,0.008333333,0,0,0,,,,,,,,,,,,9.7727,,113.5605,114.8796,l,1,[],[],[],[],[],[],[],0.6521,1,114.8806,115.3797,,,,,,1135,FEM,DIS,150,torre,el,a,0.6521,,115.3799,115.3833,0.901851852,0.008333333,0,0,0,,0,0,0,234,1,,,,
,,,,,,f78c49e87d14e30a4578b904,66a626ef09d4e21e1a8894ec,673497ca168457b338178485,2024-11-13_06h15.55.615,Tarea de género gramatical,2024.2.2,Win32,59.88023952,,,,,,,,,,,,,,,,,,,,,,,,115.3846,116.4463,a,1,[],[],[],[],[],[],[],0.3831,1,116.4464,116.9463,,,,,,1109,MAS,AGR,150,banco,el,l,0.3831,,116.9464,116.9465,0.901851852,0.008333333,0,0,0,,0,1,1,208,1,,,,
,,,,,,f78c49e87d14e30a4578b904,66a626ef09d4e21e1a8894ec,673497ca168457b338178485,2024-11-13_06h15.55.615,Tarea de género gramatical,2024.2.2,Win32,59.88023952,,,,,,,,,,,,,,,,,,,,,,,,116.9475,118.0964,l,1,[],[],[],[],[],[],[],0.4646,1,118.0965,118.5974,,,,,,1065,FEM,CON,150,amiga,,a,0.4646,,118.5987,118.5996,0.901851852,0.008333333,0,0,0,,0,2,2,164,1,,,,
,,,,,,f78c49e87d14e30a4578b904,66a626ef09d4e21e1a8894ec,673497ca168457b338178485,2024-11-13_06h15.55.615,Tarea de género gramatical,2024.2.2,Win32,59.88023952,,,,,,,,,,,,,,,,,,,,,,,,118.6007,119.7131,l,1,[],[],[],[],[],[],[],0.4358,1,119.7132,120.213,,,,,,914,FEM,AGR,150,cara,la,a,0.4358,,120.2131,120.2131,0.901851852,0.008333333,0,0,0,,0,3,3,13,1,,,,
,,,,,,f78c49e87d14e30a4578b904,66a626ef09d4e21e1a8894ec,673497ca168457b338178485,2024-11-13_06h15.55.615,Tarea de género gramatical,2024.2.2,Win32,59.88023952,,,,,,,,,,,,,,,,,,,,,,,,120.2139,121.2803,l,1,[],[],[],[],[],[],[],0.3834,1,121.2806,121.7798,,,,,,921,FEM,CON,150,boca,,a,0.3834,,121.7799,121.7801,0.901851852,0.008333333,0,0,0,,0,4,4,20,1,,,,
,,,,,,f78c49e87d14e30a4578b904,66a626ef09d4e21e1a8894ec,673497ca168457b338178485,2024-11-13_06h15.55.615,Tarea de género gramatical,2024.2.2,Win32,59.88023952,,,,,,,,,,,,,,,,,,,,,,,,121.7811,122.9297,l,1,[],[],[],[],[],[],[],0.476,1,122.9298,123.4296,,,,,,1340,FEM,AGR,150,patada,la,a,0.476,,123.4298,123.4299,0.901851852,0.008333333,0,0,0,,0,5,5,439,1,,,,
,,,,,,f78c49e87d14e30a4578b904,66a626ef09d4e21e1a8894ec,673497ca168457b338178485,2024-11-13_06h15.55.615,Tarea de género gramatical,2024.2.2,Win32,59.88023952,,,,,,,,,,,,,,,,,,,,,,,,123.4309,124.5798,l,1,[],[],[],[],[],[],[],0.474,1,124.58,125.0797,,,,,,993,FEM,CON,150,lata,,a,0.474,,125.081,125.0814,0.901851852,0.008333333,0,0,0,,0,6,6,92,1,,,,
,,,,,,f78c49e87d14e30a4578b904,66a626ef09d4e21e1a8894ec,673497ca168457b338178485,2024-11-13_06h15.55.615,Tarea de género gramatical,2024.2.2,Win32,59.88023952,,,,,,,,,,,,,,,,,,,,,,,,125.0821,126.1634,a,1,[],[],[],[],[],[],[],0.4006,1,126.1635,126.6631,,,,,,1217,MAS,AGR,150,número,el,l,0.4006,,126.6632,126.6633,0.901851852,0.008333333,0,0,0,,0,7,7,316,1,,,,
,,,,,,f78c49e87d14e30a4578b904,66a626ef09d4e21e1a8894ec,673497ca168457b338178485,2024-11-13_06h15.55.615,Tarea de género gramatical,2024.2.2,Win32,59.88023952,,,,,,,,,,,,,,,,,,,,,,,,126.6642,128.0297,a,1,[],[],[],[],[],[],[],0.6851,1,128.0297,128.5298,,,,,,1054,MAS,DIS,150,padre,la,l,0.6851,,128.5298,128.5299,0.901851852,0.008333333,0,0,0,,0,8,8,153,1,,,,
,,,,,,f78c49e87d14e30a4578b904,66a626ef09d4e21e1a8894ec,673497ca168457b338178485,2024-11-13_06h15.55.615,Tarea de género gramatical,2024.2.2,Win32,59.88023952,,,,,,,,,,,,,,,,,,,,,,,,128.5307,129.6465,a,1,[],[],[],[],[],[],[],0.4343,1,129.6466,130.1464,,,,,,959,MAS,AGR,150,lobo,el,l,0.4343,,130.1466,130.1467,0.901851852,0.008333333,0,0,0,,0,9,9,58,1,,,,
,,,,,,f78c49e87d14e30a4578b904,66a626ef09d4e21e1a8894ec,673497ca168457b338178485,2024-11-13_06h15.55.615,Tarea de género gramatical,2024.2.2,Win32,59.88023952,,,,,,,,,,,,,,,,,,,,,,,,130.1481,131.263,l,1,[],[],[],[],[],[],[],0.4345,1,131.2632,131.763,,,,,,1105,FEM,DIS,150,reina,el,a,0.4345,,131.763,131.7632,0.901851852,0.008333333,0,0,0,,0,10,10,204,1,,,,
,,,,,,f78c49e87d14e30a4578b904,66a626ef09d4e21e1a8894ec,673497ca168457b338178485,2024-11-13_06h15.55.615,Tarea de género gramatical,2024.2.2,Win32,59.88023952,,,,,,,,,,,,,,,,,,,,,,,,131.7641,132.9798,l,1,[],[],[],[],[],[],[],0.5333,1,132.9799,133.4797,,,,,,1099,FEM,DIS,150,nariz,el,a,0.5333,,133.4806,133.4811,0.901851852,0.008333333,0,0,0,,0,11,11,198,1,,,,
,,,,,,f78c49e87d14e30a4578b904,66a626ef09d4e21e1a8894ec,673497ca168457b338178485,2024-11-13_06h15.55.615,Tarea de género gramatical,2024.2.2,Win32,59.88023952,,,,,,,,,,,,,,,,,,,,,,,,133.4816,134.6298,l,1,[],[],[],[],[],[],[],0.4724,1,134.6299,135.1297,,,,,,1263,FEM,CON,150,unidad,,a,0.4724,,135.1298,135.1298,0.901851852,0.008333333,0,0,0,,0,12,12,362,1,,,,
,,,,,,f78c49e87d14e30a4578b904,66a626ef09d4e21e1a8894ec,673497ca168457b338178485,2024-11-13_06h15.55.615,Tarea de género gramatical,2024.2.2,Win32,59.88023952,,,,,,,,,,,,,,,,,,,,,,,,135.1309,136.363,a,1,[],[],[],[],[],[],[],0.5589,1,136.3631,136.863,,,,,,1146,MAS,CON,150,humor,,l,0.5589,,136.8631,136.8632,0.901851852,0.008333333,0,0,0,,0,13,13,245,1,,,,
,,,,,,f78c49e87d14e30a4578b904,66a626ef09d4e21e1a8894ec,673497ca168457b338178485,2024-11-13_06h15.55.615,Tarea de género gramatical,2024.2.2,Win32,59.88023952,,,,,,,,,,,,,,,,,,,,,,,,136.8643,138.0131,a,1,[],[],[],[],[],[],[],0.4676,1,138.0133,138.513,,,,,,1289,MAS,AGR,150,tamaño,el,l,0.4676,,138.5131,138.5132,0.901851852,0.008333333,0,0,0,,0,14,14,388,1,,,,
,,,,,,f78c49e87d14e30a4578b904,66a626ef09d4e21e1a8894ec,673497ca168457b338178485,2024-11-13_06h15.55.615,Tarea de género gramatical,2024.2.2,Win32,59.88023952,,,,,,,,,,,,,,,,,,,,,,,,138.514,139.6297,a,1,[],[],[],[],[],[],[],0.4338,1,139.6298,140.1297,,,,,,1151,MAS,AGR,150,dueño,el,l,0.4338,,140.131,140.1315,0.901851852,0.008333333,0,0,0,,0,15,15,250,1,,,,
,,,,,,f78c49e87d14e30a4578b904,66a626ef09d4e21e1a8894ec,673497ca168457b338178485,2024-11-13_06h15.55.615,Tarea de género gramatical,2024.2.2,Win32,59.88023952,,,,,,,,,,,,,,,,,,,,,,,,140.132,141.3296,a,1,[],[],[],[],[],[],[],0.52,1,141.3297,141.8298,,,,,,1301,MAS,AGR,150,abrigo,el,l,0.52,,141.8299,141.8299,0.901851852,0.008333333,0,0,0,,0,16,16,400,1,,,,
,,,,,,f78c49e87d14e30a4578b904,66a626ef09d4e21e1a8894ec,673497ca168457b338178485,2024-11-13_06h15.55.615,Tarea de género gramatical,2024.2.2,Win32,59.88023952,,,,,,,,,,,,,,,,,,,,,,,,141.8315,142.9463,a,1,[],[],[],[],[],[],[],0.4413,1,142.9465,143.4464,,,,,,960,MAS,CON,150,tono,,l,0.4413,,143.4465,143.4465,0.901851852,0.008333333,0,0,0,,0,17,17,59,1,,,,
,,,,,,f78c49e87d14e30a4578b904,66a626ef09d4e21e1a8894ec,673497ca168457b338178485,2024-11-13_06h15.55.615,Tarea de género gramatical,2024.2.2,Win32,59.88023952,,,,,,,,,,,,,,,,,,,,,,,,143.4475,144.5632,a,1,[],[],[],[],[],[],[],0.4345,1,144.5632,145.0633,,,,,,953,MAS,AGR,150,vaso,el,l,0.4345,,145.0633,145.0635,0.901851852,0.008333333,0,0,0,,0,18,18,52,1,,,,
,,,,,,f78c49e87d14e30a4578b904,66a626ef09d4e21e1a8894ec,673497ca168457b338178485,2024-11-13_06h15.55.615,Tarea de género gramatical,2024.2.2,Win32,59.88023952,,,,,,,,,,,,,,,,,,,,,,,,145.0644,146.1797,a,1,[],[],[],[],[],[],[],0.4344,1,146.1798,146.68,,,,,,1031,MAS,AGR,150,kilo,el,l,0.4344,,146.6801,146.6802,0.901851852,0.008333333,0,0,0,,0,19,19,130,1,,,,
,,,,,,f78c49e87d14e30a4578b904,66a626ef09d4e21e1a8894ec,673497ca168457b338178485,2024-11-13_06h15.55.615,Tarea de género gramatical,2024.2.2,Win32,59.88023952,,,,,,,,,,,,,,,,,,,,,,,,146.6823,147.9302,a,1,[],[],[],[],[],[],[],0.5698,1,147.9304,148.4299,,,,,,1061,MAS,AGR,150,chico,el,l,0.5698,,148.4311,148.4316,0.901851852,0.008333333,0,0,0,,0,20,20,160,1,,,,
,,,,,,f78c49e87d14e30a4578b904,66a626ef09d4e21e1a8894ec,673497ca168457b338178485,2024-11-13_06h15.55.615,Tarea de género gramatical,2024.2.2,Win32,59.88023952,,,,,,,,,,,,,,,,,,,,,,,,148.432,149.5303,l,1,[],[],[],[],[],[],[],0.4171,1,149.5305,150.0298,,,,,,1089,FEM,CON,150,pista,,a,0.4171,,150.0298,150.0299,0.901851852,0.008333333,0,0,0,,0,21,21,188,1,,,,
,,,,,,f78c49e87d14e30a4578b904,66a626ef09d4e21e1a8894ec,673497ca168457b338178485,2024-11-13_06h15.55.615,Tarea de género gramatical,2024.2.2,Win32,59.88023952,,,,,,,,,,,,,,,,,,,,,,,,150.0308,151.1964,a,1,[],[],[],[],[],[],[],0.484,1,151.1965,151.6965,,,,,,1043,MAS,AGR,150,faro,el,l,0.484,,151.6966,151.6967,0.901851852,0.008333333,0,0,0,,0,22,22,142,1,,,,
,,,,,,f78c49e87d14e30a4578b904,66a626ef09d4e21e1a8894ec,673497ca168457b338178485,2024-11-13_06h15.55.615,Tarea de género gramatical,2024.2.2,Win32,59.88023952,,,,,,,,,,,,,,,,,,,,,,,,151.6978,152.9964,a,1,[],[],[],[],[],[],[],0.6291,1,152.9965,153.4963,,,,,,906,MAS,CON,150,lado,,l,0.6291,,153.4964,153.4964,0.901851852,0.008333333,0,0,0,,0,23,23,5,1,,,,
,,,,,,f78c49e87d14e30a4578b904,66a626ef09d4e21e1a8894ec,673497ca168457b338178485,2024-11-13_06h15.55.615,Tarea de género gramatical,2024.2.2,Win32,59.88023952,,,,,,,,,,,,,,,,,,,,,,,,153.4972,154.5135,l,1,[],[],[],[],[],[],[],0.3428,1,154.5137,155.0132,,,,,,1256,FEM,AGR,150,piedra,la,a,0.3428,,155.0143,155.0147,0.901851852,0.008333333,0,0,0,,0,24,24,355,1,,,,
,,,,,,f78c49e87d14e30a4578b904,66a626ef09d4e21e1a8894ec,673497ca168457b338178485,2024-11-13_06h15.55.615,Tarea de género gramatical,2024.2.2,Win32,59.88023952,,,,,,,,,,,,,,,,,,,,,,,,155.0152,156.0965,a,1,[],[],[],[],[],[],[],0.4026,1,156.0965,156.5966,,,,,,1067,MAS,AGR,150,juego,el,l,0.4026,,156.5967,156.5967,0.901851852,0.008333333,0,0,0,,0,25,25,166,1,,,,
,,,,,,f78c49e87d14e30a4578b904,66a626ef09d4e21e1a8894ec,673497ca168457b338178485,2024-11-13_06h15.55.615,Tarea de género gramatical,2024.2.2,Win32,59.88023952,,,,,,,,,,,,,,,,,,,,,,,,156.5979,157.713,a,1,[],[],[],[],[],[],[],0.4398,1,157.7131,158.2132,,,,,,1338,MAS,CON,150,tanque,,l,0.4398,,158.2133,158.2134,0.901851852,0.008333333,0,0,0,,0,26,26,437,1,,,,
,,,,,,f78c49e87d14e30a4578b904,66a626ef09d4e21e1a8894ec,673497ca168457b338178485,2024-11-13_06h15.55.615,Tarea de género gramatical,2024.2.2,Win32,59.88023952,,,,,,,,,,,,,,,,,,,,,,,,158.2143,159.5971,a,1,[],[],[],[],[],[],[],0.7127,1,159.5973,160.0965,,,,,,982,MAS,DIS,150,tubo,la,l,0.7127,,160.0965,160.0966,0.901851852,0.008333333,0,0,0,,0,27,27,81,1,,,,
,,,,,,f78c49e87d14e30a4578b904,66a626ef09d4e21e1a8894ec,673497ca168457b338178485,2024-11-13_06h15.55.615,Tarea de género gramatical,2024.2.2,Win32,59.88023952,,,,,,,,,,,,,,,,,,,,,,,,160.0986,161.1303,a,1,[],[],[],[],[],[],[],0.3599,1,161.1304,161.6298,,,,,,1349,MAS,AGR,150,payaso,el,l,0.3599,,161.6298,161.6299,0.901851852,0.008333333,0,0,0,,0,28,28,448,1,,,,
,,,,,,f78c49e87d14e30a4578b904,66a626ef09d4e21e1a8894ec,673497ca168457b338178485,2024-11-13_06h15.55.615,Tarea de género gramatical,2024.2.2,Win32,59.88023952,,,,,,,,,,,,,,,,,,,,,,,,161.6309,162.6798,l,1,[],[],[],[],[],[],[],0.3744,1,162.6799,163.1799,,,,,,1273,FEM,DIS,150,lluvia,el,a,0.3744,,163.1811,163.1816,0.901851852,0.008333333,0,0,0,,0,29,29,372,1,,,,
,,,,,,f78c49e87d14e30a4578b904,66a626ef09d4e21e1a8894ec,673497ca168457b338178485,2024-11-13_06h15.55.615,Tarea de género gramatical,2024.2.2,Win32,59.88023952,,,,,,,,,,,,,,,,,,,,,,,,163.1823,164.3302,l,1,[],[],[],[],[],[],[],0.4677,1,164.3305,164.8298,,,,,,932,FEM,AGR,150,caja,la,a,0.4677,,164.8299,164.83,0.901851852,0.008333333,0,0,0,,0,30,30,31,1,,,,
,,,,,,f78c49e87d14e30a4578b904,66a626ef09d4e21e1a8894ec,673497ca168457b338178485,2024-11-13_06h15.55.615,Tarea de género gramatical,2024.2.2,Win32,59.88023952,,,,,,,,,,,,,,,,,,,,,,,,164.8313,166.0298,a,1,[],[],[],[],[],[],[],0.5222,1,166.0299,166.5297,,,,,,1049,MAS,AGR,150,nudo,el,l,0.5222,,166.5298,166.5298,0.901851852,0.008333333,0,0,0,,0,31,31,148,1,,,,
,,,,,,f78c49e87d14e30a4578b904,66a626ef09d4e21e1a8894ec,673497ca168457b338178485,2024-11-13_06h15.55.615,Tarea de género gramatical,2024.2.2,Win32,59.88023952,,,,,,,,,,,,,,,,,,,,,,,,166.5309,167.6297,a,1,[],[],[],[],[],[],[],0.4191,1,167.6299,168.1299,,,,,,930,MAS,CON,150,cine,,l,0.4191,,168.13,168.1301,0.901851852,0.008333333,0,0,0,,0,32,32,29,1,,,,
,,,,,,f78c49e87d14e30a4578b904,66a626ef09d4e21e1a8894ec,673497ca168457b338178485,2024-11-13_06h15.55.615,Tarea de género gramatical,2024.2.2,Win32,59.88023952,,,,,,,,,,,,,,,,,,,,,,,,168.1315,169.28,a,1,[],[],[],[],[],[],[],0.4685,1,169.2801,169.7796,,,,,,1044,MAS,CON,150,amor,,l,0.4685,,169.7812,169.7819,0.901851852,0.008333333,0,0,0,,0,33,33,143,1,,,,
,,,,,,f78c49e87d14e30a4578b904,66a626ef09d4e21e1a8894ec,673497ca168457b338178485,2024-11-13_06h15.55.615,Tarea de género gramatical,2024.2.2,Win32,59.88023952,,,,,,,,,,,,,,,,,,,,,,,,169.7826,170.9134,l,1,[],[],[],[],[],[],[],0.451,1,170.9136,171.4132,,,,,,1220,FEM,AGR,150,fiesta,la,a,0.451,,171.4133,171.4133,0.901851852,0.008333333,0,0,0,,0,34,34,319,1,,,,
,,,,,,f78c49e87d14e30a4578b904,66a626ef09d4e21e1a8894ec,673497ca168457b338178485,2024-11-13_06h15.55.615,Tarea de género gramatical,2024.2.2,Win32,59.88023952,,,,,,,,,,,,,,,,,,,,,,,,171.4147,172.4631,a,1,[],[],[],[],[],[],[],0.3737,1,172.4632,172.9632,,,,,,1253,MAS,AGR,150,verano,el,l,0.3737,,172.9632,172.9633,0.901851852,0.008333333,0,0,0,,0,35,35,352,1,,,,
,,,,,,f78c49e87d14e30a4578b904,66a626ef09d4e21e1a8894ec,673497ca168457b338178485,2024-11-13_06h15.55.615,Tarea de género gramatical,2024.2.2,Win32,59.88023952,,,,,,,,,,,,,,,,,,,,,,,,172.9645,173.9633,a,1,[],[],[],[],[],[],[],0.3177,1,173.9634,174.463,,,,,,1265,MAS,AGR,150,código,el,l,0.3177,,174.463,174.4631,0.901851852,0.008333333,0,0,0,,0,36,36,364,1,,,,
,,,,,,f78c49e87d14e30a4578b904,66a626ef09d4e21e1a8894ec,673497ca168457b338178485,2024-11-13_06h15.55.615,Tarea de género gramatical,2024.2.2,Win32,59.88023952,,,,,,,,,,,,,,,,,,,,,,,,174.464,175.5131,l,1,[],[],[],[],[],[],[],0.3687,1,175.5131,176.0131,,,,,,1064,FEM,AGR,150,novia,la,a,0.3687,,176.0132,176.0132,0.901851852,0.008333333,0,0,0,,0,37,37,163,1,,,,
,,,,,,f78c49e87d14e30a4578b904,66a626ef09d4e21e1a8894ec,673497ca168457b338178485,2024-11-13_06h15.55.615,Tarea de género gramatical,2024.2.2,Win32,59.88023952,,,,,,,,,,,,,,,,,,,,,,,,176.0141,177.1466,l,1,[],[],[],[],[],[],[],0.4523,1,177.1467,177.6464,,,,,,1239,FEM,CON,150,salida,,a,0.4523,,177.6477,177.6484,0.901851852,0.008333333,0,0,0,,0,38,38,338,1,,,,
,,,,,,f78c49e87d14e30a4578b904,66a626ef09d4e21e1a8894ec,673497ca168457b338178485,2024-11-13_06h15.55.615,Tarea de género gramatical,2024.2.2,Win32,59.88023952,,,,,,,,,,,,,,,,,,,,,,,,177.6489,178.9299,a,0,[],[],[],[],[],[],[],0.6003,0,178.9311,179.4297,,,,,,999,FEM,CON,150,fase,,a,0.6003,,179.4299,179.4299,0.901851852,0.008333333,0,0,0,,0,39,39,98,1,,,,
,,,,,,f78c49e87d14e30a4578b904,66a626ef09d4e21e1a8894ec,673497ca168457b338178485,2024-11-13_06h15.55.615,Tarea de género gramatical,2024.2.2,Win32,59.88023952,,,,,,,,,,,,,,,,,,,,,,,,179.4308,180.5631,a,1,[],[],[],[],[],[],[],0.4553,1,180.5639,181.0632,,,,,,948,MAS,CON,150,loco,,l,0.4553,,181.0632,181.0633,0.901851852,0.008333333,0,0,0,,0,40,40,47,1,,,,
,,,,,,f78c49e87d14e30a4578b904,66a626ef09d4e21e1a8894ec,673497ca168457b338178485,2024-11-13_06h15.55.615,Tarea de género gramatical,2024.2.2,Win32,59.88023952,,,,,,,,,,,,,,,,,,,,,,,,181.0642,182.1964,a,1,[],[],[],[],[],[],[],0.4508,1,182.1966,182.6965,,,,,,1000,MAS,DIS,150,nido,la,l,0.4508,,182.6965,182.6966,0.901851852,0.008333333,0,0,0,,0,41,41,99,1,,,,
,,,,,,f78c49e87d14e30a4578b904,66a626ef09d4e21e1a8894ec,673497ca168457b338178485,2024-11-13_06h15.55.615,Tarea de género gramatical,2024.2.2,Win32,59.88023952,,,,,,,,,,,,,,,,,,,,,,,,182.6978,183.8131,l,1,[],[],[],[],[],[],[],0.4348,1,183.8131,184.3131,,,,,,1346,FEM,AGR,150,bañera,la,a,0.4348,,184.3142,184.3149,0.901851852,0.008333333,0,0,0,,0,42,42,445,1,,,,
,,,,,,f78c49e87d14e30a4578b904,66a626ef09d4e21e1a8894ec,673497ca168457b338178485,2024-11-13_06h15.55.615,Tarea de género gramatical,2024.2.2,Win32,59.88023952,,,,,,,,,,,,,,,,,,,,,,,,184.3154,185.4798,l,1,[],[],[],[],[],[],[],0.4892,1,185.4799,185.9798,,,,,,1195,FEM,DIS,150,grasa,el,a,0.4892,,185.9798,185.9799,0.901851852,0.008333333,0,0,0,,0,43,43,294,1,,,,
,,,,,,f78c49e87d14e30a4578b904,66a626ef09d4e21e1a8894ec,673497ca168457b338178485,2024-11-13_06h15.55.615,Tarea de género gramatical,2024.2.2,Win32,59.88023952,,,,,,,,,,,,,,,,,,,,,,,,185.9808,187.1465,l,1,[],[],[],[],[],[],[],0.4838,1,187.1466,187.6465,,,,,,1016,FEM,AGR,150,nube,la,a,0.4838,,187.6465,187.6466,0.901851852,0.008333333,0,0,0,,0,44,44,115,1,,,,
,,,,,,f78c49e87d14e30a4578b904,66a626ef09d4e21e1a8894ec,673497ca168457b338178485,2024-11-13_06h15.55.615,Tarea de género gramatical,2024.2.2,Win32,59.88023952,,,,,,,,,,,,,,,,,,,,,,,,187.6475,188.8132,l,1,[],[],[],[],[],[],[],0.4839,1,188.8134,189.3131,,,,,,963,FEM,CON,150,fila,,a,0.4839,,189.3131,189.3131,0.901851852,0.008333333,0,0,0,,0,45,45,62,1,,,,
,,,,,,f78c49e87d14e30a4578b904,66a626ef09d4e21e1a8894ec,673497ca168457b338178485,2024-11-13_06h15.55.615,Tarea de género gramatical,2024.2.2,Win32,59.88023952,,,,,,,,,,,,,,,,,,,,,,,,189.314,190.3964,a,1,[],[],[],[],[],[],[],0.4078,1,190.3964,190.8964,,,,,,1198,MAS,DIS,150,botón,la,l,0.4078,,190.8965,190.8965,0.901851852,0.008333333,0,0,0,,0,46,46,297,1,,,,
,,,,,,f78c49e87d14e30a4578b904,66a626ef09d4e21e1a8894ec,673497ca168457b338178485,2024-11-13_06h15.55.615,Tarea de género gramatical,2024.2.2,Win32,59.88023952,,,,,,,,,,,,,,,,,,,,,,,,190.8974,192.1633,l,1,[],[],[],[],[],[],[],0.5837,1,192.1634,192.6636,,,,,,1047,FEM,CON,150,grúa,,a,0.5837,,192.6665,192.6686,0.901851852,0.008333333,0,0,0,,0,47,47,146,1,,,,
,,,,,,f78c49e87d14e30a4578b904,66a626ef09d4e21e1a8894ec,673497ca168457b338178485,2024-11-13_06h15.55.615,Tarea de género gramatical,2024.2.2,Win32,59.88023952,,,,,,,,,,,,,,,,,,,,,,,,192.6703,193.8132,l,1,[],[],[],[],[],[],[],0.4736,1,193.8132,194.3131,,,,,,1316,FEM,AGR,150,colina,la,a,0.4736,,194.3131,194.3132,0.901851852,0.008333333,0,0,0,,0,48,48,415,1,,,,
,,,,,,f78c49e87d14e30a4578b904,66a626ef09d4e21e1a8894ec,673497ca168457b338178485,2024-11-13_06h15.55.615,Tarea de género gramatical,2024.2.2,Win32,59.88023952,,,,,,,,,,,,,,,,,,,,,,,,194.3141,195.4297,l,1,[],[],[],[],[],[],[],0.4322,1,195.4298,195.9298,,,,,,1167,FEM,CON,150,barba,,a,0.4322,,195.9298,195.9298,0.901851852,0.008333333,0,0,0,,0,49,49,266,1,,,,
,,,,,,f78c49e87d14e30a4578b904,66a626ef09d4e21e1a8894ec,673497ca168457b338178485,2024-11-13_06h15.55.615,Tarea de género gramatical,2024.2.2,Win32,59.88023952,,,,,,,,,,,,,,,,,,,,,,,,195.9307,197.1966,l,1,[],[],[],[],[],[],[],0.5846,1,197.1967,197.6966,,,,,,907,FEM,DIS,150,hora,el,a,0.5846,,197.6967,197.6968,0.901851852,0.008333333,0,0,0,,0,50,50,6,1,,,,
,,,,,,f78c49e87d14e30a4578b904,66a626ef09d4e21e1a8894ec,673497ca168457b338178485,2024-11-13_06h15.55.615,Tarea de género gramatical,2024.2.2,Win32,59.88023952,,,,,,,,,,,,,,,,,,,,,,,,197.6979,198.7634,l,1,[],[],[],[],[],[],[],0.3916,1,198.7635,199.2636,,,,,,951,FEM,CON,150,bala,,a,0.3916,,199.2662,199.268,0.901851852,0.008333333,0,0,0,,0,51,51,50,1,,,,
,,,,,,f78c49e87d14e30a4578b904,66a626ef09d4e21e1a8894ec,673497ca168457b338178485,2024-11-13_06h15.55.615,Tarea de género gramatical,2024.2.2,Win32,59.88023952,,,,,,,,,,,,,,,,,,,,,,,,199.2702,200.3297,l,1,[],[],[],[],[],[],[],0.3946,1,200.3298,200.83,,,,,,1184,FEM,AGR,150,fruta,la,a,0.3946,,200.8301,200.8303,0.901851852,0.008333333,0,0,0,,0,52,52,283,1,,,,
,,,,,,f78c49e87d14e30a4578b904,66a626ef09d4e21e1a8894ec,673497ca168457b338178485,2024-11-13_06h15.55.615,Tarea de género gramatical,2024.2.2,Win32,59.88023952,,,,,,,,,,,,,,,,,,,,,,,,200.8315,201.93,l,1,[],[],[],[],[],[],[],0.4173,1,201.9302,202.4298,,,,,,1202,FEM,AGR,150,cabeza,la,a,0.4173,,202.4299,202.43,0.901851852,0.008333333,0,0,0,,0,53,53,301,1,,,,
,,,,,,f78c49e87d14e30a4578b904,66a626ef09d4e21e1a8894ec,673497ca168457b338178485,2024-11-13_06h15.55.615,Tarea de género gramatical,2024.2.2,Win32,59.88023952,,,,,,,,,,,,,,,,,,,,,,,,202.4309,203.513,l,1,[],[],[],[],[],[],[],0.4009,1,203.5131,204.0131,,,,,,1310,FEM,AGR,150,piedad,la,a,0.4009,,204.0131,204.0133,0.901851852,0.008333333,0,0,0,,0,54,54,409,1,,,,
,,,,,,f78c49e87d14e30a4578b904,66a626ef09d4e21e1a8894ec,673497ca168457b338178485,2024-11-13_06h15.55.615,Tarea de género gramatical,2024.2.2,Win32,59.88023952,,,,,,,,,,,,,,,,,,,,,,,,204.0143,205.0298,l,1,[],[],[],[],[],[],[],0.3339,1,205.0299,205.5297,,,,,,1010,FEM,AGR,150,rosa,la,a,0.3339,,205.5297,205.5298,0.901851852,0.008333333,0,0,0,,0,55,55,109,1,,,,
,,,,,,f78c49e87d14e30a4578b904,66a626ef09d4e21e1a8894ec,673497ca168457b338178485,2024-11-13_06h15.55.615,Tarea de género gramatical,2024.2.2,Win32,59.88023952,,,,,,,,,,,,,,,,,,,,,,,,205.5308,206.5463,a,1,[],[],[],[],[],[],[],0.3424,1,206.5464,207.0464,,,,,,1126,MAS,DIS,150,color,la,l,0.3424,,207.0473,207.0479,0.901851852,0.008333333,0,0,0,,0,56,56,225,1,,,,
,,,,,,f78c49e87d14e30a4578b904,66a626ef09d4e21e1a8894ec,673497ca168457b338178485,2024-11-13_06h15.55.615,Tarea de género gramatical,2024.2.2,Win32,59.88023952,,,,,,,,,,,,,,,,,,,,,,,,207.0485,208.1799,l,1,[],[],[],[],[],[],[],0.4511,1,208.18,208.6798,,,,,,1267,FEM,DIS,150,teoría,el,a,0.4511,,208.6798,208.6798,0.901851852,0.008333333,0,0,0,,0,57,57,366,1,,,,
,,,,,,f78c49e87d14e30a4578b904,66a626ef09d4e21e1a8894ec,673497ca168457b338178485,2024-11-13_06h15.55.615,Tarea de género gramatical,2024.2.2,Win32,59.88023952,,,,,,,,,,,,,,,,,,,,,,,,208.6806,209.7797,l,1,[],[],[],[],[],[],[],0.4215,1,209.7799,210.28,,,,,,933,FEM,CON,150,boda,,a,0.4215,,210.2801,210.2802,0.901851852,0.008333333,0,0,0,,0,58,58,32,1,,,,
,,,,,,f78c49e87d14e30a4578b904,66a626ef09d4e21e1a8894ec,673497ca168457b338178485,2024-11-13_06h15.55.615,Tarea de género gramatical,2024.2.2,Win32,59.88023952,,,,,,,,,,,,,,,,,,,,,,,,210.2814,211.3964,a,1,[],[],[],[],[],[],[],0.4332,1,211.3965,211.8967,,,,,,1212,MAS,CON,150,equipo,,l,0.4332,,211.8968,211.8969,0.901851852,0.008333333,0,0,0,,0,59,59,311,1,,,,
,,,,,,f78c49e87d14e30a4578b904,66a626ef09d4e21e1a8894ec,673497ca168457b338178485,2024-11-13_06h15.55.615,Tarea de género gramatical,2024.2.2,Win32,59.88023952,,,,,,,,,,,,,,,,,,,,,,,,211.8978,212.8797,l,1,[],[],[],[],[],[],[],0.3081,1,212.8798,213.3798,,,,,,1107,FEM,CON,150,playa,,a,0.3081,,213.381,213.3816,0.901851852,0.008333333,0,0,0,,0,60,60,206,1,,,,
,,,,,,f78c49e87d14e30a4578b904,66a626ef09d4e21e1a8894ec,673497ca168457b338178485,2024-11-13_06h15.55.615,Tarea de género gramatical,2024.2.2,Win32,59.88023952,,,,,,,,,,,,,,,,,,,,,,,,213.3823,214.4798,a,1,[],[],[],[],[],[],[],0.4163,1,214.4799,214.9798,,,,,,988,MAS,DIS,150,pavo,la,l,0.4163,,214.9799,214.98,0.901851852,0.008333333,0,0,0,,0,61,61,87,1,,,,
,,,,,,f78c49e87d14e30a4578b904,66a626ef09d4e21e1a8894ec,673497ca168457b338178485,2024-11-13_06h15.55.615,Tarea de género gramatical,2024.2.2,Win32,59.88023952,,,,,,,,,,,,,,,,,,,,,,,,214.9809,216.1299,l,1,[],[],[],[],[],[],[],0.4754,1,216.1299,216.6298,,,,,,1172,FEM,AGR,150,oreja,la,a,0.4754,,216.6298,216.6299,0.901851852,0.008333333,0,0,0,,0,62,62,271,1,,,,
,,,,,,f78c49e87d14e30a4578b904,66a626ef09d4e21e1a8894ec,673497ca168457b338178485,2024-11-13_06h15.55.615,Tarea de género gramatical,2024.2.2,Win32,59.88023952,,,,,,,,,,,,,,,,,,,,,,,,216.6308,217.7466,a,1,[],[],[],[],[],[],[],0.4409,1,217.7467,218.2468,,,,,,1271,MAS,AGR,150,sonido,el,l,0.4409,,218.2468,218.247,0.901851852,0.008333333,0,0,0,,0,63,63,370,1,,,,
,,,,,,f78c49e87d14e30a4578b904,66a626ef09d4e21e1a8894ec,673497ca168457b338178485,2024-11-13_06h15.55.615,Tarea de género gramatical,2024.2.2,Win32,59.88023952,,,,,,,,,,,,,,,,,,,,,,,,218.2483,219.3465,a,1,[],[],[],[],[],[],[],0.4171,1,219.3466,219.8465,,,,,,1259,MAS,AGR,150,bosque,el,l,0.4171,,219.8466,219.8467,0.901851852,0.008333333,0,0,0,,0,64,64,358,1,,,,
,,,,,,f78c49e87d14e30a4578b904,66a626ef09d4e21e1a8894ec,673497ca168457b338178485,2024-11-13_06h15.55.615,Tarea de género gramatical,2024.2.2,Win32,59.88023952,,,,,,,,,,,,,,,,,,,,,,,,219.8477,220.9465,l,1,[],[],[],[],[],[],[],0.4226,1,220.9466,221.4464,,,,,,1334,FEM,AGR,150,corona,la,a,0.4226,,221.4473,221.4479,0.901851852,0.008333333,0,0,0,,0,65,65,433,1,,,,
,,,,,,f78c49e87d14e30a4578b904,66a626ef09d4e21e1a8894ec,673497ca168457b338178485,2024-11-13_06h15.55.615,Tarea de género gramatical,2024.2.2,Win32,59.88023952,,,,,,,,,,,,,,,,,,,,,,,,221.4485,222.6299,a,0,[],[],[],[],[],[],[],0.5081,0,222.6308,223.1298,,,,,,997,FEM,DIS,150,capa,el,a,0.5081,,223.1298,223.1299,0.901851852,0.008333333,0,0,0,,0,66,66,96,1,,,,
,,,,,,f78c49e87d14e30a4578b904,66a626ef09d4e21e1a8894ec,673497ca168457b338178485,2024-11-13_06h15.55.615,Tarea de género gramatical,2024.2.2,Win32,59.88023952,,,,,,,,,,,,,,,,,,,,,,,,223.1307,224.5464,a,1,[],[],[],[],[],[],[],0.7394,1,224.5472,225.0464,,,,,,1116,MAS,CON,150,éxito,,l,0.7394,,225.0465,225.0465,0.901851852,0.008333333,0,0,0,,0,67,67,215,1,,,,
,,,,,,f78c49e87d14e30a4578b904,66a626ef09d4e21e1a8894ec,673497ca168457b338178485,2024-11-13_06h15.55.615,Tarea de género gramatical,2024.2.2,Win32,59.88023952,,,,,,,,,,,,,,,,,,,,,,,,225.0473,226.1964,a,1,[],[],[],[],[],[],[],0.4783,1,226.1965,226.6967,,,,,,1097,MAS,AGR,150,avión,el,l,0.4783,,226.6967,226.6969,0.901851852,0.008333333,0,0,0,,0,68,68,196,1,,,,
,,,,,,f78c49e87d14e30a4578b904,66a626ef09d4e21e1a8894ec,673497ca168457b338178485,2024-11-13_06h15.55.615,Tarea de género gramatical,2024.2.2,Win32,59.88023952,,,,,,,,,,,,,,,,,,,,,,,,226.6979,227.7965,l,1,[],[],[],[],[],[],[],0.4248,1,227.7965,228.2965,,,,,,927,FEM,CON,150,mesa,,a,0.4248,,228.2974,228.298,0.901851852,0.008333333,0,0,0,,0,69,69,26,1,,,,
,,,,,,f78c49e87d14e30a4578b904,66a626ef09d4e21e1a8894ec,673497ca168457b338178485,2024-11-13_06h15.55.615,Tarea de género gramatical,2024.2.2,Win32,59.88023952,,,,,,,,,,,,,,,,,,,,,,,,228.2984,229.43,l,1,[],[],[],[],[],[],[],0.4529,1,229.4301,229.9299,,,,,,903,FEM,CON,150,cosa,,a,0.4529,,229.9299,229.93,0.901851852,0.008333333,0,0,0,,0,70,70,2,1,,,,
,,,,,,f78c49e87d14e30a4578b904,66a626ef09d4e21e1a8894ec,673497ca168457b338178485,2024-11-13_06h15.55.615,Tarea de género gramatical,2024.2.2,Win32,59.88023952,,,,,,,,,,,,,,,,,,,,,,,,229.931,230.9965,l,1,[],[],[],[],[],[],[],0.3825,1,230.9965,231.4966,,,,,,901,FEM,DIS,150,casa,el,a,0.3825,,231.4966,231.4967,0.901851852,0.008333333,0,0,0,,0,71,71,0,1,,,,
,,,,,,f78c49e87d14e30a4578b904,66a626ef09d4e21e1a8894ec,673497ca168457b338178485,2024-11-13_06h15.55.615,Tarea de género gramatical,2024.2.2,Win32,59.88023952,,,,,,,,,,,,,,,,,,,,,,,,231.4976,233.0466,l,1,[],[],[],[],[],[],[],0.8742,1,233.0467,233.5467,,,,,,915,FEM,CON,150,cama,,a,0.8742,,233.5467,233.5468,0.901851852,0.008333333,0,0,0,,0,72,72,14,1,,,,
,,,,,,f78c49e87d14e30a4578b904,66a626ef09d4e21e1a8894ec,673497ca168457b338178485,2024-11-13_06h15.55.615,Tarea de género gramatical,2024.2.2,Win32,59.88023952,,,,,,,,,,,,,,,,,,,,,,,,233.5479,234.8465,a,1,[],[],[],[],[],[],[],0.6176,1,234.8465,235.3465,,,,,,1055,MAS,AGR,150,mundo,el,l,0.6176,,235.3466,235.3467,0.901851852,0.008333333,0,0,0,,0,73,73,154,1,,,,
,,,,,,f78c49e87d14e30a4578b904,66a626ef09d4e21e1a8894ec,673497ca168457b338178485,2024-11-13_06h15.55.615,Tarea de género gramatical,2024.2.2,Win32,59.88023952,,,,,,,,,,,,,,,,,,,,,,,,235.3477,236.5633,l,1,[],[],[],[],[],[],[],0.5409,1,236.5634,237.0633,,,,,,1215,FEM,CON,150,manera,,a,0.5409,,237.0643,237.0647,0.901851852,0.008333333,0,0,0,,0,74,74,314,1,,,,
,,,,,,f78c49e87d14e30a4578b904,66a626ef09d4e21e1a8894ec,673497ca168457b338178485,2024-11-13_06h15.55.615,Tarea de género gramatical,2024.2.2,Win32,59.88023952,,,,,,,,,,,,,,,,,,,,,,,,237.0651,238.2467,a,1,[],[],[],[],[],[],[],0.5015,1,238.2468,238.7468,,,,,,990,MAS,CON,150,león,,l,0.5015,,238.7468,238.7471,0.901851852,0.008333333,0,0,0,,0,75,75,89,1,,,,
,,,,,,f78c49e87d14e30a4578b904,66a626ef09d4e21e1a8894ec,673497ca168457b338178485,2024-11-13_06h15.55.615,Tarea de género gramatical,2024.2.2,Win32,59.88023952,,,,,,,,,,,,,,,,,,,,,,,,238.7488,240.0132,a,1,[],[],[],[],[],[],[],0.5882,1,240.0133,240.5132,,,,,,1222,MAS,DIS,150,minuto,la,l,0.5882,,240.5132,240.5133,0.901851852,0.008333333,0,0,0,,0,76,76,321,1,,,,
,,,,,,f78c49e87d14e30a4578b904,66a626ef09d4e21e1a8894ec,673497ca168457b338178485,2024-11-13_06h15.55.615,Tarea de género gramatical,2024.2.2,Win32,59.88023952,,,,,,,,,,,,,,,,,,,,,,,,240.5143,241.6468,a,1,[],[],[],[],[],[],[],0.4517,1,241.647,242.1465,,,,,,1228,MAS,DIS,150,asunto,la,l,0.4517,,242.1466,242.1466,0.901851852,0.008333333,0,0,0,,0,77,77,327,1,,,,
,,,,,,f78c49e87d14e30a4578b904,66a626ef09d4e21e1a8894ec,673497ca168457b338178485,2024-11-13_06h15.55.615,Tarea de género gramatical,2024.2.2,Win32,59.88023952,,,,,,,,,,,,,,,,,,,,,,,,242.1475,243.2633,l,1,[],[],[],[],[],[],[],0.4343,1,243.2634,243.7632,,,,,,931,FEM,DIS,150,edad,el,a,0.4343,,243.7641,243.7645,0.901851852,0.008333333,0,0,0,,0,78,78,30,1,,,,
,,,,,,f78c49e87d14e30a4578b904,66a626ef09d4e21e1a8894ec,673497ca168457b338178485,2024-11-13_06h15.55.615,Tarea de género gramatical,2024.2.2,Win32,59.88023952,,,,,,,,,,,,,,,,,,,,,,,,243.765,244.8135,l,1,[],[],[],[],[],[],[],0.3675,1,244.8136,245.3131,,,,,,920,FEM,AGR,150,ropa,la,a,0.3675,,245.3132,245.3133,0.901851852,0.008333333,0,0,0,,0,79,79,19,1,,,,
,,,,,,f78c49e87d14e30a4578b904,66a626ef09d4e21e1a8894ec,673497ca168457b338178485,2024-11-13_06h15.55.615,Tarea de género gramatical,2024.2.2,Win32,59.88023952,,,,,,,,,,,,,,,,,,,,,,,,245.3143,246.3634,l,1,[],[],[],[],[],[],[],0.3686,1,246.3636,246.8635,,,,,,1112,FEM,AGR,150,cinta,la,a,0.3686,,246.8636,246.8637,0.901851852,0.008333333,0,0,0,,0,80,80,211,1,,,,
,,,,,,f78c49e87d14e30a4578b904,66a626ef09d4e21e1a8894ec,673497ca168457b338178485,2024-11-13_06h15.55.615,Tarea de género gramatical,2024.2.2,Win32,59.88023952,,,,,,,,,,,,,,,,,,,,,,,,246.8647,247.997,a,1,[],[],[],[],[],[],[],0.4509,1,247.9971,248.4966,,,,,,1342,MAS,DIS,150,cuadro,la,l,0.4509,,248.4966,248.4966,0.901851852,0.008333333,0,0,0,,0,81,81,441,1,,,,
,,,,,,f78c49e87d14e30a4578b904,66a626ef09d4e21e1a8894ec,673497ca168457b338178485,2024-11-13_06h15.55.615,Tarea de género gramatical,2024.2.2,Win32,59.88023952,,,,,,,,,,,,,,,,,,,,,,,,248.4978,249.6632,a,1,[],[],[],[],[],[],[],0.4918,1,249.6632,250.1635,,,,,,1163,MAS,AGR,150,carro,el,l,0.4918,,250.1636,250.1637,0.901851852,0.008333333,0,0,0,,0,82,82,262,1,,,,
,,,,,,f78c49e87d14e30a4578b904,66a626ef09d4e21e1a8894ec,673497ca168457b338178485,2024-11-13_06h15.55.615,Tarea de género gramatical,2024.2.2,Win32,59.88023952,,,,,,,,,,,,,,,,,,,,,,,,250.1654,251.3139,l,1,[],[],[],[],[],[],[],0.4668,1,251.3142,251.8135,,,,,,1005,FEM,CON,150,jefa,,a,0.4668,,251.8155,251.8167,0.901851852,0.008333333,0,0,0,,0,83,83,104,1,,,,
,,,,,,f78c49e87d14e30a4578b904,66a626ef09d4e21e1a8894ec,673497ca168457b338178485,2024-11-13_06h15.55.615,Tarea de género gramatical,2024.2.2,Win32,59.88023952,,,,,,,,,,,,,,,,,,,,,,,,251.8182,252.9465,l,1,[],[],[],[],[],[],[],0.4496,1,252.9466,253.4465,,,,,,1125,FEM,CON,150,pieza,,a,0.4496,,253.4466,253.4466,0.901851852,0.008333333,0,0,0,,0,84,84,224,1,,,,
,,,,,,f78c49e87d14e30a4578b904,66a626ef09d4e21e1a8894ec,673497ca168457b338178485,2024-11-13_06h15.55.615,Tarea de género gramatical,2024.2.2,Win32,59.88023952,,,,,,,,,,,,,,,,,,,,,,,,253.4476,254.5466,a,1,[],[],[],[],[],[],[],0.4172,1,254.5466,255.0466,,,,,,1114,MAS,DIS,150,fondo,la,l,0.4172,,255.0466,255.0467,0.901851852,0.008333333,0,0,0,,0,85,85,213,1,,,,
,,,,,,f78c49e87d14e30a4578b904,66a626ef09d4e21e1a8894ec,673497ca168457b338178485,2024-11-13_06h15.55.615,Tarea de género gramatical,2024.2.2,Win32,59.88023952,,,,,,,,,,,,,,,,,,,,,,,,255.0478,256.1633,a,1,[],[],[],[],[],[],[],0.4384,1,256.1633,256.6634,,,,,,1024,MAS,DIS,150,clan,la,l,0.4384,,256.6634,256.6635,0.901851852,0.008333333,0,0,0,,0,86,86,123,1,,,,
,,,,,,f78c49e87d14e30a4578b904,66a626ef09d4e21e1a8894ec,673497ca168457b338178485,2024-11-13_06h15.55.615,Tarea de género gramatical,2024.2.2,Win32,59.88023952,,,,,,,,,,,,,,,,,,,,,,,,256.6648,257.8632,a,1,[],[],[],[],[],[],[],0.5159,1,257.8633,258.3632,,,,,,1026,MAS,CON,150,lazo,,l,0.5159,,258.3641,258.3645,0.901851852,0.008333333,0,0,0,,0,87,87,125,1,,,,
,,,,,,f78c49e87d14e30a4578b904,66a626ef09d4e21e1a8894ec,673497ca168457b338178485,2024-11-13_06h15.55.615,Tarea de género gramatical,2024.2.2,Win32,59.88023952,,,,,,,,,,,,,,,,,,,,,,,,258.3649,259.4971,l,1,[],[],[],[],[],[],[],0.4536,1,259.4973,259.9969,,,,,,1147,FEM,DIS,150,frase,el,a,0.4536,,259.997,259.9971,0.901851852,0.008333333,0,0,0,,0,88,88,246,1,,,,
,,,,,,f78c49e87d14e30a4578b904,66a626ef09d4e21e1a8894ec,673497ca168457b338178485,2024-11-13_06h15.55.615,Tarea de género gramatical,2024.2.2,Win32,59.88023952,,,,,,,,,,,,,,,,,,,,,,,,259.9987,261.3799,l,1,[],[],[],[],[],[],[],0.7001,1,261.38,261.88,,,,,,1183,FEM,DIS,150,pluma,el,a,0.7001,,261.88,261.8802,0.901851852,0.008333333,0,0,0,,0,89,89,282,1,,,,
,,,,,,f78c49e87d14e30a4578b904,66a626ef09d4e21e1a8894ec,673497ca168457b338178485,2024-11-13_06h15.55.615,Tarea de género gramatical,2024.2.2,Win32,59.88023952,,,,,,,,,,,,,,,,,,,,,,,,261.8813,263.0131,l,1,[],[],[],[],[],[],[],0.456,1,263.0131,263.5132,,,,,,1309,FEM,DIS,150,moneda,el,a,0.456,,263.5132,263.5132,0.901851852,0.008333333,0,0,0,,0,90,90,408,1,,,,
,,,,,,f78c49e87d14e30a4578b904,66a626ef09d4e21e1a8894ec,673497ca168457b338178485,2024-11-13_06h15.55.615,Tarea de género gramatical,2024.2.2,Win32,59.88023952,,,,,,,,,,,,,,,,,,,,,,,,263.5142,264.5967,l,1,[],[],[],[],[],[],[],0.4084,1,264.5969,265.0966,,,,,,1286,FEM,AGR,150,sombra,la,a,0.4084,,265.0967,265.0968,0.901851852,0.008333333,0,0,0,,0,91,91,385,1,,,,
,,,,,,f78c49e87d14e30a4578b904,66a626ef09d4e21e1a8894ec,673497ca168457b338178485,2024-11-13_06h15.55.615,Tarea de género gramatical,2024.2.2,Win32,59.88023952,,,,,,,,,,,,,,,,,,,,,,,,265.0982,266.1798,l,1,[],[],[],[],[],[],[],0.4014,1,266.1801,266.6799,,,,,,919,FEM,DIS,150,niña,el,a,0.4014,,266.6815,266.6825,0.901851852,0.008333333,0,0,0,,0,92,92,18,1,,,,
,,,,,,f78c49e87d14e30a4578b904,66a626ef09d4e21e1a8894ec,673497ca168457b338178485,2024-11-13_06h15.55.615,Tarea de género gramatical,2024.2.2,Win32,59.88023952,,,,,,,,,,,,,,,,,,,,,,,,266.6834,267.8632,a,1,[],[],[],[],[],[],[],0.5078,1,267.8633,268.3633,,,,,,912,MAS,CON,150,plan,,l,0.5078,,268.3633,268.3635,0.901851852,0.008333333,0,0,0,,0,93,93,11,1,,,,
,,,,,,f78c49e87d14e30a4578b904,66a626ef09d4e21e1a8894ec,673497ca168457b338178485,2024-11-13_06h15.55.615,Tarea de género gramatical,2024.2.2,Win32,59.88023952,,,,,,,,,,,,,,,,,,,,,,,,268.3642,269.3799,l,1,[],[],[],[],[],[],[],0.3397,1,269.38,269.8801,,,,,,1059,FEM,CON,150,clase,,a,0.3397,,269.8801,269.8802,0.901851852,0.008333333,0,0,0,,0,94,94,158,1,,,,
,,,,,,f78c49e87d14e30a4578b904,66a626ef09d4e21e1a8894ec,673497ca168457b338178485,2024-11-13_06h15.55.615,Tarea de género gramatical,2024.2.2,Win32,59.88023952,,,,,,,,,,,,,,,,,,,,,,,,269.8812,270.9799,a,1,[],[],[],[],[],[],[],0.4171,1,270.98,271.4798,,,,,,1247,MAS,AGR,150,cuello,el,l,0.4171,,271.4799,271.48,0.901851852,0.008333333,0,0,0,,0,95,95,346,1,,,,
,,,,,,f78c49e87d14e30a4578b904,66a626ef09d4e21e1a8894ec,673497ca168457b338178485,2024-11-13_06h15.55.615,Tarea de género gramatical,2024.2.2,Win32,59.88023952,,,,,,,,,,,,,,,,,,,,,,,,271.481,272.5466,l,1,[],[],[],[],[],[],[],0.3899,1,272.5466,273.0467,,,,,,1304,FEM,AGR,150,gloria,la,a,0.3899,,273.0477,273.0481,0.901851852,0.008333333,0,0,0,,0,96,96,403,1,,,,
,,,,,,f78c49e87d14e30a4578b904,66a626ef09d4e21e1a8894ec,673497ca168457b338178485,2024-11-13_06h15.55.615,Tarea de género gramatical,2024.2.2,Win32,59.88023952,,,,,,,,,,,,,,,,,,,,,,,,273.0486,274.1799,a,1,[],[],[],[],[],[],[],0.4537,1,274.1799,274.6803,,,,,,1020,MAS,CON,150,puño,,l,0.4537,,274.6804,274.6807,0.901851852,0.008333333,0,0,0,,0,97,97,119,1,,,,
,,,,,,f78c49e87d14e30a4578b904,66a626ef09d4e21e1a8894ec,673497ca168457b338178485,2024-11-13_06h15.55.615,Tarea de género gramatical,2024.2.2,Win32,59.88023952,,,,,,,,,,,,,,,,,,,,,,,,274.6828,275.7138,l,1,[],[],[],[],[],[],[],0.36,1,275.7138,276.2135,,,,,,1154,FEM,AGR,150,caída,la,a,0.36,,276.2136,276.2137,0.901851852,0.008333333,0,0,0,,0,98,98,253,1,,,,
,,,,,,f78c49e87d14e30a4578b904,66a626ef09d4e21e1a8894ec,673497ca168457b338178485,2024-11-13_06h15.55.615,Tarea de género gramatical,2024.2.2,Win32,59.88023952,,,,,,,,,,,,,,,,,,,,,,,,276.2153,277.2966,a,1,[],[],[],[],[],[],[],0.4086,1,277.2966,277.7965,,,,,,1019,MAS,AGR,150,mito,el,l,0.4086,,277.7966,277.7966,0.901851852,0.008333333,0,0,0,,0,99,99,118,1,,,,
,,,,,,f78c49e87d14e30a4578b904,66a626ef09d4e21e1a8894ec,673497ca168457b338178485,2024-11-13_06h15.55.615,Tarea de género gramatical,2024.2.2,Win32,59.88023952,,,,,,,,,,,,,,,,,,,,,,,,277.7974,278.7966,l,1,[],[],[],[],[],[],[],0.3162,1,278.7967,279.2967,,,,,,1070,FEM,AGR,150,carta,la,a,0.3162,,279.2967,279.2969,0.901851852,0.008333333,0,0,0,,0,100,100,169,1,,,,
,,,,,,f78c49e87d14e30a4578b904,66a626ef09d4e21e1a8894ec,673497ca168457b338178485,2024-11-13_06h15.55.615,Tarea de género gramatical,2024.2.2,Win32,59.88023952,,,,,,,,,,,,,,,,,,,,,,,,279.2979,280.4466,l,1,[],[],[],[],[],[],[],0.467,1,280.4467,280.9466,,,,,,1023,FEM,CON,150,tela,,a,0.467,,280.9476,280.9482,0.901851852,0.008333333,0,0,0,,0,101,101,122,1,,,,
,,,,,,f78c49e87d14e30a4578b904,66a626ef09d4e21e1a8894ec,673497ca168457b338178485,2024-11-13_06h15.55.615,Tarea de género gramatical,2024.2.2,Win32,59.88023952,,,,,,,,,,,,,,,,,,,,,,,,280.9486,282.1298,l,1,[],[],[],[],[],[],[],0.5098,1,282.1298,282.6301,,,,,,1185,FEM,CON,150,mafia,,a,0.5098,,282.6301,282.6302,0.901851852,0.008333333,0,0,0,,0,102,102,284,1,,,,
,,,,,,f78c49e87d14e30a4578b904,66a626ef09d4e21e1a8894ec,673497ca168457b338178485,2024-11-13_06h15.55.615,Tarea de género gramatical,2024.2.2,Win32,59.88023952,,,,,,,,,,,,,,,,,,,,,,,,282.6311,283.7466,l,1,[],[],[],[],[],[],[],0.4352,1,283.7467,284.247,,,,,,974,FEM,AGR,150,flor,la,a,0.4352,,284.2471,284.2473,0.901851852,0.008333333,0,0,0,,0,103,103,73,1,,,,
,,,,,,f78c49e87d14e30a4578b904,66a626ef09d4e21e1a8894ec,673497ca168457b338178485,2024-11-13_06h15.55.615,Tarea de género gramatical,2024.2.2,Win32,59.88023952,,,,,,,,,,,,,,,,,,,,,,,,284.2491,285.4632,a,1,[],[],[],[],[],[],[],0.5423,1,285.4633,285.9632,,,,,,1278,MAS,CON,150,pastel,,l,0.5423,,285.9632,285.9633,0.901851852,0.008333333,0,0,0,,0,104,104,377,1,,,,
,,,,,,f78c49e87d14e30a4578b904,66a626ef09d4e21e1a8894ec,673497ca168457b338178485,2024-11-13_06h15.55.615,Tarea de género gramatical,2024.2.2,Win32,59.88023952,,,,,,,,,,,,,,,,,,,,,,,,285.9641,287.1633,a,1,[],[],[],[],[],[],[],0.5183,1,287.1634,287.6634,,,,,,1102,MAS,DIS,150,honor,la,l,0.5183,,287.665,287.666,0.901851852,0.008333333,0,0,0,,0,105,105,201,1,,,,
,,,,,,f78c49e87d14e30a4578b904,66a626ef09d4e21e1a8894ec,673497ca168457b338178485,2024-11-13_06h15.55.615,Tarea de género gramatical,2024.2.2,Win32,59.88023952,,,,,,,,,,,,,,,,,,,,,,,,287.667,288.7966,l,1,[],[],[],[],[],[],[],0.4587,1,288.7966,289.2965,,,,,,967,FEM,DIS,150,miel,el,a,0.4587,,289.2966,289.2967,0.901851852,0.008333333,0,0,0,,0,106,106,66,1,,,,
,,,,,,f78c49e87d14e30a4578b904,66a626ef09d4e21e1a8894ec,673497ca168457b338178485,2024-11-13_06h15.55.615,Tarea de género gramatical,2024.2.2,Win32,59.88023952,,,,,,,,,,,,,,,,,,,,,,,,289.2976,290.3799,l,1,[],[],[],[],[],[],[],0.3991,1,290.3801,290.8801,,,,,,1143,FEM,CON,150,salsa,,a,0.3991,,290.8801,290.8802,0.901851852,0.008333333,0,0,0,,0,107,107,242,1,,,,
,,,,,,f78c49e87d14e30a4578b904,66a626ef09d4e21e1a8894ec,673497ca168457b338178485,2024-11-13_06h15.55.615,Tarea de género gramatical,2024.2.2,Win32,59.88023952,,,,,,,,,,,,,,,,,,,,,,,,290.8813,291.8966,l,1,[],[],[],[],[],[],[],0.3368,1,291.8967,292.3968,,,,,,1221,FEM,CON,150,comida,,a,0.3368,,292.3969,292.3969,0.901851852,0.008333333,0,0,0,,0,108,108,320,1,,,,
,,,,,,f78c49e87d14e30a4578b904,66a626ef09d4e21e1a8894ec,673497ca168457b338178485,2024-11-13_06h15.55.615,Tarea de género gramatical,2024.2.2,Win32,59.88023952,,,,,,,,,,,,,,,,,,,,,,,,292.3978,293.5634,l,1,[],[],[],[],[],[],[],0.4838,1,293.5634,294.0633,,,,,,1317,FEM,CON,150,cabaña,,a,0.4838,,294.0633,294.0634,0.901851852,0.008333333,0,0,0,,0,109,109,416,1,,,,
,,,,,,f78c49e87d14e30a4578b904,66a626ef09d4e21e1a8894ec,673497ca168457b338178485,2024-11-13_06h15.55.615,Tarea de género gramatical,2024.2.2,Win32,59.88023952,,,,,,,,,,,,,,,,,,,,,,,,294.0643,295.2804,l,1,[],[],[],[],[],[],[],0.5404,1,295.2806,295.7801,,,,,,1255,FEM,DIS,150,mirada,el,a,0.5404,,295.781,295.7815,0.901851852,0.008333333,0,0,0,,0,110,110,354,1,,,,
,,,,,,f78c49e87d14e30a4578b904,66a626ef09d4e21e1a8894ec,673497ca168457b338178485,2024-11-13_06h15.55.615,Tarea de género gramatical,2024.2.2,Win32,59.88023952,,,,,,,,,,,,,,,,,,,,,,,,295.782,296.9132,a,1,[],[],[],[],[],[],[],0.4592,1,296.9132,297.4136,,,,,,1272,MAS,CON,150,delito,,l,0.4592,,297.4137,297.4139,0.901851852,0.008333333,0,0,0,,0,111,111,371,1,,,,
,,,,,,f78c49e87d14e30a4578b904,66a626ef09d4e21e1a8894ec,673497ca168457b338178485,2024-11-13_06h15.55.615,Tarea de género gramatical,2024.2.2,Win32,59.88023952,,,,,,,,,,,,,,,,,,,,,,,,297.4156,298.5632,a,1,[],[],[],[],[],[],[],0.4712,1,298.5634,299.0632,,,,,,1090,MAS,DIS,150,campo,la,l,0.4712,,299.0633,299.0634,0.901851852,0.008333333,0,0,0,,0,112,112,189,1,,,,
,,,,,,f78c49e87d14e30a4578b904,66a626ef09d4e21e1a8894ec,673497ca168457b338178485,2024-11-13_06h15.55.615,Tarea de género gramatical,2024.2.2,Win32,59.88023952,,,,,,,,,,,,,,,,,,,,,,,,299.0644,300.0965,a,1,[],[],[],[],[],[],[],0.3596,1,300.0968,300.5967,,,,,,911,MAS,AGR,150,país,el,l,0.3596,,300.5968,300.597,0.901851852,0.008333333,0,0,0,,0,113,113,10,1,,,,
,,,,,,f78c49e87d14e30a4578b904,66a626ef09d4e21e1a8894ec,673497ca168457b338178485,2024-11-13_06h15.55.615,Tarea de género gramatical,2024.2.2,Win32,59.88023952,,,,,,,,,,,,,,,,,,,,,,,,300.598,301.7133,a,1,[],[],[],[],[],[],[],0.4323,1,301.7134,302.2135,,,,,,1264,MAS,DIS,150,viento,la,l,0.4323,,302.2149,302.2158,0.901851852,0.008333333,0,0,0,,0,114,114,363,1,,,,
,,,,,,f78c49e87d14e30a4578b904,66a626ef09d4e21e1a8894ec,673497ca168457b338178485,2024-11-13_06h15.55.615,Tarea de género gramatical,2024.2.2,Win32,59.88023952,,,,,,,,,,,,,,,,,,,,,,,,302.2165,303.304,l,1,[],[],[],[],[],[],[],0.4187,1,303.304,303.8041,,,,,,1280,FEM,AGR,150,madera,la,a,0.4187,,303.8042,303.8043,0.901851852,0.008333333,0,0,0,,0,115,115,379,1,,,,
,,,,,,f78c49e87d14e30a4578b904,66a626ef09d4e21e1a8894ec,673497ca168457b338178485,2024-11-13_06h15.55.615,Tarea de género gramatical,2024.2.2,Win32,59.88023952,,,,,,,,,,,,,,,,,,,,,,,,303.8061,304.9041,a,1,[],[],[],[],[],[],[],0.431,1,304.9042,305.4047,,,,,,970,MAS,DIS,150,palo,la,l,0.431,,305.4047,305.4048,0.901851852,0.008333333,0,0,0,,0,116,116,69,1,,,,
,,,,,,f78c49e87d14e30a4578b904,66a626ef09d4e21e1a8894ec,673497ca168457b338178485,2024-11-13_06h15.55.615,Tarea de género gramatical,2024.2.2,Win32,59.88023952,,,,,,,,,,,,,,,,,,,,,,,,305.407,306.5209,l,1,[],[],[],[],[],[],[],0.4345,1,306.521,307.0208,,,,,,950,FEM,AGR,150,dama,la,a,0.4345,,307.0208,307.021,0.901851852,0.008333333,0,0,0,,0,117,117,49,1,,,,
,,,,,,f78c49e87d14e30a4578b904,66a626ef09d4e21e1a8894ec,673497ca168457b338178485,2024-11-13_06h15.55.615,Tarea de género gramatical,2024.2.2,Win32,59.88023952,,,,,,,,,,,,,,,,,,,,,,,,307.0222,308.0965,l,1,[],[],[],[],[],[],[],0.3924,1,308.0965,308.5864,,,,,,1335,FEM,CON,150,niebla,,a,0.3924,,308.5865,308.5865,0.901851852,0.008333333,0,0,0,,0,118,118,434,1,,,,
,,,,,,f78c49e87d14e30a4578b904,66a626ef09d4e21e1a8894ec,673497ca168457b338178485,2024-11-13_06h15.55.615,Tarea de género gramatical,2024.2.2,Win32,59.88023952,,,,,,,,,,,,,,,,,,,,,,,,308.5873,309.8367,l,1,[],[],[],[],[],[],[],0.5839,1,309.8367,310.3364,,,,,,1333,FEM,DIS,150,huella,el,a,0.5839,,310.3373,310.338,0.901851852,0.008333333,0,0,0,,0,119,119,432,1,,,,
,,,,,,f78c49e87d14e30a4578b904,66a626ef09d4e21e1a8894ec,673497ca168457b338178485,2024-11-13_06h15.55.615,Tarea de género gramatical,2024.2.2,Win32,59.88023952,,,,,,,,,,,,,,,,,,,,,,,,310.3385,311.3469,a,1,[],[],[],[],[],[],[],0.3268,1,311.347,311.8535,,,,,,1186,MAS,DIS,150,reino,la,l,0.3268,,311.8535,311.8537,0.901851852,0.008333333,0,0,0,,0,120,120,285,1,,,,
,,,,,,f78c49e87d14e30a4578b904,66a626ef09d4e21e1a8894ec,673497ca168457b338178485,2024-11-13_06h15.55.615,Tarea de género gramatical,2024.2.2,Win32,59.88023952,,,,,,,,,,,,,,,,,,,,,,,,311.8545,312.971,l,1,[],[],[],[],[],[],[],0.4517,1,312.9711,313.4703,,,,,,1323,FEM,CON,150,poesía,,a,0.4517,,313.4704,313.4704,0.901851852,0.008333333,0,0,0,,0,121,121,422,1,,,,
,,,,,,f78c49e87d14e30a4578b904,66a626ef09d4e21e1a8894ec,673497ca168457b338178485,2024-11-13_06h15.55.615,Tarea de género gramatical,2024.2.2,Win32,59.88023952,,,,,,,,,,,,,,,,,,,,,,,,313.4713,314.5708,a,1,[],[],[],[],[],[],[],0.4308,1,314.5709,315.0705,,,,,,1060,MAS,DIS,150,señor,la,l,0.4308,,315.0705,315.0706,0.901851852,0.008333333,0,0,0,,0,122,122,159,1,,,,
,,,,,,f78c49e87d14e30a4578b904,66a626ef09d4e21e1a8894ec,673497ca168457b338178485,2024-11-13_06h15.55.615,Tarea de género gramatical,2024.2.2,Win32,59.88023952,,,,,,,,,,,,,,,,,,,,,,,,315.0717,316.2206,a,1,[],[],[],[],[],[],[],0.4675,1,316.2206,316.7202,,,,,,935,MAS,AGR,150,taxi,el,l,0.4675,,316.7211,316.7216,0.901851852,0.008333333,0,0,0,,0,123,123,34,1,,,,
,,,,,,f78c49e87d14e30a4578b904,66a626ef09d4e21e1a8894ec,673497ca168457b338178485,2024-11-13_06h15.55.615,Tarea de género gramatical,2024.2.2,Win32,59.88023952,,,,,,,,,,,,,,,,,,,,,,,,316.7222,317.7207,a,1,[],[],[],[],[],[],[],0.3199,1,317.7208,318.2133,,,,,,1050,MAS,CON,150,mozo,,l,0.3199,,318.2133,318.2134,0.901851852,0.008333333,0,0,0,,0,124,124,149,1,,,,
,,,,,,f78c49e87d14e30a4578b904,66a626ef09d4e21e1a8894ec,673497ca168457b338178485,2024-11-13_06h15.55.615,Tarea de género gramatical,2024.2.2,Win32,59.88023952,,,,,,,,,,,,,,,,,,,,,,,,318.2143,319.2696,l,1,[],[],[],[],[],[],[],0.3955,1,319.2697,319.7703,,,,,,1249,FEM,DIS,150,prensa,el,a,0.3955,,319.7703,319.7704,0.901851852,0.008333333,0,0,0,,0,125,125,348,1,,,,
,,,,,,f78c49e87d14e30a4578b904,66a626ef09d4e21e1a8894ec,673497ca168457b338178485,2024-11-13_06h15.55.615,Tarea de género gramatical,2024.2.2,Win32,59.88023952,,,,,,,,,,,,,,,,,,,,,,,,319.7713,320.8209,l,0,[],[],[],[],[],[],[],0.3674,0,320.8216,321.3133,,,,,,1188,MAS,CON,150,grado,,l,0.3674,,321.3134,321.3135,0.901851852,0.008333333,0,0,0,,0,126,126,287,1,,,,
,,,,,,f78c49e87d14e30a4578b904,66a626ef09d4e21e1a8894ec,673497ca168457b338178485,2024-11-13_06h15.55.615,Tarea de género gramatical,2024.2.2,Win32,59.88023952,,,,,,,,,,,,,,,,,,,,,,,,321.3143,322.4877,l,1,[],[],[],[],[],[],[],0.5009,1,322.4883,322.9799,,,,,,968,FEM,AGR,150,pata,la,a,0.5009,,322.9799,322.98,0.901851852,0.008333333,0,0,0,,0,127,127,67,1,,,,
,,,,,,f78c49e87d14e30a4578b904,66a626ef09d4e21e1a8894ec,673497ca168457b338178485,2024-11-13_06h15.55.615,Tarea de género gramatical,2024.2.2,Win32,59.88023952,,,,,,,,,,,,,,,,,,,,,,,,322.9807,324.0632,a,1,[],[],[],[],[],[],[],0.4045,1,324.0632,324.5705,,,,,,996,MAS,CON,150,pato,,l,0.4045,,324.5716,324.5722,0.901851852,0.008333333,0,0,0,,0,128,128,95,1,,,,
,,,,,,f78c49e87d14e30a4578b904,66a626ef09d4e21e1a8894ec,673497ca168457b338178485,2024-11-13_06h15.55.615,Tarea de género gramatical,2024.2.2,Win32,59.88023952,,,,,,,,,,,,,,,,,,,,,,,,324.5727,325.7708,l,1,[],[],[],[],[],[],[],0.5173,1,325.7708,326.2633,,,,,,1011,FEM,CON,150,goma,,a,0.5173,,326.2633,326.2633,0.901851852,0.008333333,0,0,0,,0,129,129,110,1,,,,
,,,,,,f78c49e87d14e30a4578b904,66a626ef09d4e21e1a8894ec,673497ca168457b338178485,2024-11-13_06h15.55.615,Tarea de género gramatical,2024.2.2,Win32,59.88023952,,,,,,,,,,,,,,,,,,,,,,,,326.264,327.3967,a,1,[],[],[],[],[],[],[],0.459,1,327.3968,327.8863,,,,,,1258,MAS,DIS,150,motivo,la,l,0.459,,327.8863,327.8864,0.901851852,0.008333333,0,0,0,,0,130,130,357,1,,,,
,,,,,,f78c49e87d14e30a4578b904,66a626ef09d4e21e1a8894ec,673497ca168457b338178485,2024-11-13_06h15.55.615,Tarea de género gramatical,2024.2.2,Win32,59.88023952,,,,,,,,,,,,,,,,,,,,,,,,327.8873,329.1379,a,1,[],[],[],[],[],[],[],0.5672,1,329.138,329.64,,,,,,1030,MAS,DIS,150,yate,la,l,0.5672,,329.64,329.6401,0.901851852,0.008333333,0,0,0,,0,131,131,129,1,,,,
,,,,,,f78c49e87d14e30a4578b904,66a626ef09d4e21e1a8894ec,673497ca168457b338178485,2024-11-13_06h15.55.615,Tarea de género gramatical,2024.2.2,Win32,59.88023952,,,,,,,,,,,,,,,,,,,,,,,,329.6411,330.78,l,1,[],[],[],[],[],[],[],0.4715,1,330.78,331.2703,,,,,,1341,FEM,CON,150,medida,,a,0.4715,,331.2713,331.2718,0.901851852,0.008333333,0,0,0,,0,132,132,440,1,,,,
,,,,,,f78c49e87d14e30a4578b904,66a626ef09d4e21e1a8894ec,673497ca168457b338178485,2024-11-13_06h15.55.615,Tarea de género gramatical,2024.2.2,Win32,59.88023952,,,,,,,,,,,,,,,,,,,,,,,,331.2723,332.4182,a,1,[],[],[],[],[],[],[],0.4783,1,332.4182,332.9178,,,,,,1324,MAS,DIS,150,rastro,la,l,0.4783,,332.9179,332.9179,0.901851852,0.008333333,0,0,0,,0,133,133,423,1,,,,
,,,,,,f78c49e87d14e30a4578b904,66a626ef09d4e21e1a8894ec,673497ca168457b338178485,2024-11-13_06h15.55.615,Tarea de género gramatical,2024.2.2,Win32,59.88023952,,,,,,,,,,,,,,,,,,,,,,,,332.9189,333.9874,l,1,[],[],[],[],[],[],[],0.3815,1,333.9874,334.4799,,,,,,949,FEM,DIS,150,piel,el,a,0.3815,,334.4799,334.48,0.901851852,0.008333333,0,0,0,,0,134,134,48,1,,,,
,,,,,,f78c49e87d14e30a4578b904,66a626ef09d4e21e1a8894ec,673497ca168457b338178485,2024-11-13_06h15.55.615,Tarea de género gramatical,2024.2.2,Win32,59.88023952,,,,,,,,,,,,,,,,,,,,,,,,334.4809,335.6797,a,1,[],[],[],[],[],[],[],0.507,1,335.6798,336.1872,,,,,,1277,MAS,AGR,150,jardín,el,l,0.507,,336.1872,336.1872,0.901851852,0.008333333,0,0,0,,0,135,135,376,1,,,,
,,,,,,f78c49e87d14e30a4578b904,66a626ef09d4e21e1a8894ec,673497ca168457b338178485,2024-11-13_06h15.55.615,Tarea de género gramatical,2024.2.2,Win32,59.88023952,,,,,,,,,,,,,,,,,,,,,,,,336.1883,337.3548,a,1,[],[],[],[],[],[],[],0.4977,1,337.3549,337.8536,,,,,,1180,MAS,DIS,150,salón,la,l,0.4977,,337.8537,337.8538,0.901851852,0.008333333,0,0,0,,0,136,136,279,1,,,,
,,,,,,f78c49e87d14e30a4578b904,66a626ef09d4e21e1a8894ec,673497ca168457b338178485,2024-11-13_06h15.55.615,Tarea de género gramatical,2024.2.2,Win32,59.88023952,,,,,,,,,,,,,,,,,,,,,,,,337.8549,338.9542,a,1,[],[],[],[],[],[],[],0.4171,1,338.9543,339.4469,,,,,,1294,MAS,DIS,150,examen,la,l,0.4171,,339.4479,339.4486,0.901851852,0.008333333,0,0,0,,0,137,137,393,1,,,,
,,,,,,f78c49e87d14e30a4578b904,66a626ef09d4e21e1a8894ec,673497ca168457b338178485,2024-11-13_06h15.55.615,Tarea de género gramatical,2024.2.2,Win32,59.88023952,,,,,,,,,,,,,,,,,,,,,,,,339.4491,340.5207,l,1,[],[],[],[],[],[],[],0.3845,1,340.5208,341.0211,,,,,,1137,FEM,CON,150,ducha,,a,0.3845,,341.0212,341.0213,0.901851852,0.008333333,0,0,0,,0,138,138,236,1,,,,
,,,,,,f78c49e87d14e30a4578b904,66a626ef09d4e21e1a8894ec,673497ca168457b338178485,2024-11-13_06h15.55.615,Tarea de género gramatical,2024.2.2,Win32,59.88023952,,,,,,,,,,,,,,,,,,,,,,,,341.0234,342.0868,a,1,[],[],[],[],[],[],[],0.3834,1,342.0869,342.58,,,,,,1134,MAS,CON,150,héroe,,l,0.3834,,342.58,342.5801,0.901851852,0.008333333,0,0,0,,0,139,139,233,1,,,,
,,,,,,f78c49e87d14e30a4578b904,66a626ef09d4e21e1a8894ec,673497ca168457b338178485,2024-11-13_06h15.55.615,Tarea de género gramatical,2024.2.2,Win32,59.88023952,,,,,,,,,,,,,,,,,,,,,,,,342.5809,343.5875,l,1,[],[],[],[],[],[],[],0.3174,1,343.5875,344.08,,,,,,1017,FEM,CON,150,raya,,a,0.3174,,344.0801,344.0802,0.901851852,0.008333333,0,0,0,,0,140,140,116,1,,,,
,,,,,,f78c49e87d14e30a4578b904,66a626ef09d4e21e1a8894ec,673497ca168457b338178485,2024-11-13_06h15.55.615,Tarea de género gramatical,2024.2.2,Win32,59.88023952,,,,,,,,,,,,,,,,,,,,,,,,344.0813,345.2344,a,1,[],[],[],[],[],[],[],0.4808,1,345.2345,345.7299,,,,,,983,MAS,AGR,150,nene,el,l,0.4808,,345.7307,345.7312,0.901851852,0.008333333,0,0,0,,0,141,141,82,1,,,,
,,,,,,f78c49e87d14e30a4578b904,66a626ef09d4e21e1a8894ec,673497ca168457b338178485,2024-11-13_06h15.55.615,Tarea de género gramatical,2024.2.2,Win32,59.88023952,,,,,,,,,,,,,,,,,,,,,,,,345.7316,346.7376,l,1,[],[],[],[],[],[],[],0.334,1,346.7377,347.2301,,,,,,1094,FEM,AGR,150,banda,la,a,0.334,,347.2301,347.2302,0.901851852,0.008333333,0,0,0,,0,142,142,193,1,,,,
,,,,,,f78c49e87d14e30a4578b904,66a626ef09d4e21e1a8894ec,673497ca168457b338178485,2024-11-13_06h15.55.615,Tarea de género gramatical,2024.2.2,Win32,59.88023952,,,,,,,,,,,,,,,,,,,,,,,,347.2311,348.2717,a,1,[],[],[],[],[],[],[],0.3675,1,348.2718,348.7689,,,,,,964,MAS,DIS,150,saco,la,l,0.3675,,348.7689,348.769,0.901851852,0.008333333,0,0,0,,0,143,143,63,1,,,,
,,,,,,f78c49e87d14e30a4578b904,66a626ef09d4e21e1a8894ec,673497ca168457b338178485,2024-11-13_06h15.55.615,Tarea de género gramatical,2024.2.2,Win32,59.88023952,,,,,,,,,,,,,,,,,,,,,,,,348.7699,349.7702,l,1,[],[],[],[],[],[],[],0.3339,1,349.7702,350.2637,,,,,,909,FEM,CON,150,mamá,,a,0.3339,,350.2638,350.2641,0.901851852,0.008333333,0,0,0,,0,144,144,8,1,,,,
,,,,,,f78c49e87d14e30a4578b904,66a626ef09d4e21e1a8894ec,673497ca168457b338178485,2024-11-13_06h15.55.615,Tarea de género gramatical,2024.2.2,Win32,59.88023952,,,,,,,,,,,,,,,,,,,,,,,,350.2654,351.5467,a,1,[],[],[],[],[],[],[],0.5956,1,351.5468,352.0375,,,,,,1014,MAS,CON,150,menú,,l,0.5956,,352.0375,352.0375,0.901851852,0.008333333,0,0,0,,0,145,145,113,1,,,,
,,,,,,f78c49e87d14e30a4578b904,66a626ef09d4e21e1a8894ec,673497ca168457b338178485,2024-11-13_06h15.55.615,Tarea de género gramatical,2024.2.2,Win32,59.88023952,,,,,,,,,,,,,,,,,,,,,,,,352.0384,353.2387,l,1,[],[],[],[],[],[],[],0.5316,1,353.239,353.737,,,,,,1219,FEM,DIS,150,sangre,el,a,0.5316,,353.7379,353.7384,0.901851852,0.008333333,0,0,0,,0,146,146,318,1,,,,
,,,,,,f78c49e87d14e30a4578b904,66a626ef09d4e21e1a8894ec,673497ca168457b338178485,2024-11-13_06h15.55.615,Tarea de género gramatical,2024.2.2,Win32,59.88023952,,,,,,,,,,,,,,,,,,,,,,,,353.7388,354.7875,a,1,[],[],[],[],[],[],[],0.3673,1,354.7876,355.2873,,,,,,1145,MAS,AGR,150,turno,el,l,0.3673,,355.2873,355.2874,0.901851852,0.008333333,0,0,0,,0,147,147,244,1,,,,
,,,,,,f78c49e87d14e30a4578b904,66a626ef09d4e21e1a8894ec,673497ca168457b338178485,2024-11-13_06h15.55.615,Tarea de género gramatical,2024.2.2,Win32,59.88023952,,,,,,,,,,,,,,,,,,,,,,,,355.2883,356.4209,l,1,[],[],[],[],[],[],[],0.4642,1,356.4209,356.9211,,,,,,1298,FEM,AGR,150,hierba,la,a,0.4642,,356.9212,356.9215,0.901851852,0.008333333,0,0,0,,0,148,148,397,1,,,,
,,,,,,f78c49e87d14e30a4578b904,66a626ef09d4e21e1a8894ec,673497ca168457b338178485,2024-11-13_06h15.55.615,Tarea de género gramatical,2024.2.2,Win32,59.88023952,,,,,,,,,,,,,,,,,,,,,,,,356.9231,358.0466,a,1,[],[],[],[],[],[],[],0.4341,1,358.0467,358.5538,,,,,,1006,MAS,DIS,150,test,la,l,0.4341,,358.5538,358.5539,0.901851852,0.008333333,0,0,0,,0,149,149,105,1,,,,
,,,,,,f78c49e87d14e30a4578b904,66a626ef09d4e21e1a8894ec,673497ca168457b338178485,2024-11-13_06h15.55.615,Tarea de género gramatical,2024.2.2,Win32,59.88023952,,,,,,,,,,,,,,,,,,,,,,,,358.5552,359.7707,a,1,[],[],[],[],[],[],[],0.5468,1,359.7708,360.2633,,,,,,1078,MAS,DIS,150,punto,la,l,0.5468,,360.2641,373.3513,0.901851852,0.008333333,0,0,0,space,0,150,150,177,1,13.064,,,
,,,,,,f78c49e87d14e30a4578b904,66a626ef09d4e21e1a8894ec,673497ca168457b338178485,2024-11-13_06h15.55.615,Tarea de género gramatical,2024.2.2,Win32,59.88023952,,,,,,,,,,,,,,,,,,,,,,,,373.352,374.4708,l,1,[],[],[],[],[],[],[],0.4339,1,374.4708,374.9634,,,,,,908,FEM,AGR,150,idea,la,a,0.4339,,374.9634,374.9635,0.901851852,0.008333333,0,0,0,,0,151,151,7,1,,,,
,,,,,,f78c49e87d14e30a4578b904,66a626ef09d4e21e1a8894ec,673497ca168457b338178485,2024-11-13_06h15.55.615,Tarea de género gramatical,2024.2.2,Win32,59.88023952,,,,,,,,,,,,,,,,,,,,,,,,374.9644,375.9869,l,1,[],[],[],[],[],[],[],0.3496,1,375.987,376.4865,,,,,,1209,FEM,CON,150,esposa,,a,0.3496,,376.4866,376.4866,0.901851852,0.008333333,0,0,0,,0,152,152,308,1,,,,
,,,,,,f78c49e87d14e30a4578b904,66a626ef09d4e21e1a8894ec,673497ca168457b338178485,2024-11-13_06h15.55.615,Tarea de género gramatical,2024.2.2,Win32,59.88023952,,,,,,,,,,,,,,,,,,,,,,,,376.4876,377.921,a,0,[],[],[],[],[],[],[],0.768,0,377.9216,378.4207,,,,,,985,FEM,DIS,150,gira,el,a,0.768,,378.4207,378.4208,0.901851852,0.008333333,0,0,0,,0,153,153,84,1,,,,
,,,,,,f78c49e87d14e30a4578b904,66a626ef09d4e21e1a8894ec,673497ca168457b338178485,2024-11-13_06h15.55.615,Tarea de género gramatical,2024.2.2,Win32,59.88023952,,,,,,,,,,,,,,,,,,,,,,,,378.4216,379.8043,l,1,[],[],[],[],[],[],[],0.7018,1,379.8049,380.3047,,,,,,1279,FEM,DIS,150,granja,el,a,0.7018,,380.3048,380.305,0.901851852,0.008333333,0,0,0,,0,154,154,378,1,,,,
,,,,,,f78c49e87d14e30a4578b904,66a626ef09d4e21e1a8894ec,673497ca168457b338178485,2024-11-13_06h15.55.615,Tarea de género gramatical,2024.2.2,Win32,59.88023952,,,,,,,,,,,,,,,,,,,,,,,,380.307,381.3376,l,1,[],[],[],[],[],[],[],0.3513,1,381.3376,381.8363,,,,,,1083,FEM,CON,150,llave,,a,0.3513,,381.8375,381.8381,0.901851852,0.008333333,0,0,0,,0,155,155,182,1,,,,
,,,,,,f78c49e87d14e30a4578b904,66a626ef09d4e21e1a8894ec,673497ca168457b338178485,2024-11-13_06h15.55.615,Tarea de género gramatical,2024.2.2,Win32,59.88023952,,,,,,,,,,,,,,,,,,,,,,,,381.8389,382.9378,a,1,[],[],[],[],[],[],[],0.4308,1,382.9378,383.4369,,,,,,1036,MAS,DIS,150,vago,la,l,0.4308,,383.4369,383.4369,0.901851852,0.008333333,0,0,0,,0,156,156,135,1,,,,
,,,,,,f78c49e87d14e30a4578b904,66a626ef09d4e21e1a8894ec,673497ca168457b338178485,2024-11-13_06h15.55.615,Tarea de género gramatical,2024.2.2,Win32,59.88023952,,,,,,,,,,,,,,,,,,,,,,,,383.4377,384.5206,l,1,[],[],[],[],[],[],[],0.4021,1,384.5206,385.0203,,,,,,1233,FEM,CON,150,locura,,a,0.4021,,385.0204,385.0205,0.901851852,0.008333333,0,0,0,,0,157,157,332,1,,,,
,,,,,,f78c49e87d14e30a4578b904,66a626ef09d4e21e1a8894ec,673497ca168457b338178485,2024-11-13_06h15.55.615,Tarea de género gramatical,2024.2.2,Win32,59.88023952,,,,,,,,,,,,,,,,,,,,,,,,385.0212,386.0874,l,1,[],[],[],[],[],[],[],0.397,1,386.0875,386.5861,,,,,,1269,FEM,CON,150,camisa,,a,0.397,,386.5862,386.5863,0.901851852,0.008333333,0,0,0,,0,158,158,368,1,,,,
,,,,,,f78c49e87d14e30a4578b904,66a626ef09d4e21e1a8894ec,673497ca168457b338178485,2024-11-13_06h15.55.615,Tarea de género gramatical,2024.2.2,Win32,59.88023952,,,,,,,,,,,,,,,,,,,,,,,,386.587,387.8876,l,1,[],[],[],[],[],[],[],0.6311,1,387.8877,388.38,,,,,,1293,FEM,CON,150,alarma,,a,0.6311,,388.3807,388.3812,0.901851852,0.008333333,0,0,0,,0,159,159,392,1,,,,
,,,,,,f78c49e87d14e30a4578b904,66a626ef09d4e21e1a8894ec,673497ca168457b338178485,2024-11-13_06h15.55.615,Tarea de género gramatical,2024.2.2,Win32,59.88023952,,,,,,,,,,,,,,,,,,,,,,,,388.3817,389.4468,l,1,[],[],[],[],[],[],[],0.4082,1,389.4469,389.9371,,,,,,1173,FEM,CON,150,tarta,,a,0.4082,,389.9372,389.9373,0.901851852,0.008333333,0,0,0,,0,160,160,272,1,,,,
,,,,,,f78c49e87d14e30a4578b904,66a626ef09d4e21e1a8894ec,673497ca168457b338178485,2024-11-13_06h15.55.615,Tarea de género gramatical,2024.2.2,Win32,59.88023952,,,,,,,,,,,,,,,,,,,,,,,,389.9381,391.0805,a,1,[],[],[],[],[],[],[],0.4527,1,391.0806,391.57,,,,,,1025,MAS,AGR,150,bate,el,l,0.4527,,391.5701,391.5701,0.901851852,0.008333333,0,0,0,,0,161,161,124,1,,,,
,,,,,,f78c49e87d14e30a4578b904,66a626ef09d4e21e1a8894ec,673497ca168457b338178485,2024-11-13_06h15.55.615,Tarea de género gramatical,2024.2.2,Win32,59.88023952,,,,,,,,,,,,,,,,,,,,,,,,391.5711,392.5542,l,1,[],[],[],[],[],[],[],0.3176,1,392.5542,393.047,,,,,,937,FEM,DIS,150,sala,el,a,0.3176,,393.0471,393.0473,0.901851852,0.008333333,0,0,0,,0,162,162,36,1,,,,
,,,,,,f78c49e87d14e30a4578b904,66a626ef09d4e21e1a8894ec,673497ca168457b338178485,2024-11-13_06h15.55.615,Tarea de género gramatical,2024.2.2,Win32,59.88023952,,,,,,,,,,,,,,,,,,,,,,,,393.0493,394.1377,l,1,[],[],[],[],[],[],[],0.4308,1,394.1378,394.6301,,,,,,1179,FEM,CON,150,selva,,a,0.4308,,394.6302,394.6303,0.901851852,0.008333333,0,0,0,,0,163,163,278,1,,,,
,,,,,,f78c49e87d14e30a4578b904,66a626ef09d4e21e1a8894ec,673497ca168457b338178485,2024-11-13_06h15.55.615,Tarea de género gramatical,2024.2.2,Win32,59.88023952,,,,,,,,,,,,,,,,,,,,,,,,394.6312,395.6135,a,1,[],[],[],[],[],[],[],0.3062,1,395.6137,396.1189,,,,,,1254,MAS,CON,150,camión,,l,0.3062,,396.1198,396.1203,0.901851852,0.008333333,0,0,0,,0,164,164,353,1,,,,
,,,,,,f78c49e87d14e30a4578b904,66a626ef09d4e21e1a8894ec,673497ca168457b338178485,2024-11-13_06h15.55.615,Tarea de género gramatical,2024.2.2,Win32,59.88023952,,,,,,,,,,,,,,,,,,,,,,,,396.1207,397.1706,a,1,[],[],[],[],[],[],[],0.3669,1,397.1706,397.6704,,,,,,941,MAS,AGR,150,bote,el,l,0.3669,,397.6704,397.6705,0.901851852,0.008333333,0,0,0,,0,165,165,40,1,,,,
,,,,,,f78c49e87d14e30a4578b904,66a626ef09d4e21e1a8894ec,673497ca168457b338178485,2024-11-13_06h15.55.615,Tarea de género gramatical,2024.2.2,Win32,59.88023952,,,,,,,,,,,,,,,,,,,,,,,,397.6713,398.8374,l,1,[],[],[],[],[],[],[],0.4974,1,398.8374,399.3371,,,,,,973,FEM,DIS,150,roca,el,a,0.4974,,399.3371,399.3371,0.901851852,0.008333333,0,0,0,,0,166,166,72,1,,,,
,,,,,,f78c49e87d14e30a4578b904,66a626ef09d4e21e1a8894ec,673497ca168457b338178485,2024-11-13_06h15.55.615,Tarea de género gramatical,2024.2.2,Win32,59.88023952,,,,,,,,,,,,,,,,,,,,,,,,399.3381,400.4366,l,1,[],[],[],[],[],[],[],0.4163,1,400.4366,400.9372,,,,,,1203,FEM,CON,150,maldad,,a,0.4163,,400.9373,400.9373,0.901851852,0.008333333,0,0,0,,0,167,167,302,1,,,,
,,,,,,f78c49e87d14e30a4578b904,66a626ef09d4e21e1a8894ec,673497ca168457b338178485,2024-11-13_06h15.55.615,Tarea de género gramatical,2024.2.2,Win32,59.88023952,,,,,,,,,,,,,,,,,,,,,,,,400.9381,401.98,l,1,[],[],[],[],[],[],[],0.3626,1,401.9801,402.4707,,,,,,1082,FEM,AGR,150,prisa,la,a,0.3626,,402.4715,402.4721,0.901851852,0.008333333,0,0,0,,0,168,168,181,1,,,,
,,,,,,f78c49e87d14e30a4578b904,66a626ef09d4e21e1a8894ec,673497ca168457b338178485,2024-11-13_06h15.55.615,Tarea de género gramatical,2024.2.2,Win32,59.88023952,,,,,,,,,,,,,,,,,,,,,,,,402.4727,403.654,a,1,[],[],[],[],[],[],[],0.5138,1,403.654,404.1543,,,,,,1128,MAS,CON,150,nivel,,l,0.5138,,404.1543,404.1545,0.901851852,0.008333333,0,0,0,,0,169,169,227,1,,,,
,,,,,,f78c49e87d14e30a4578b904,66a626ef09d4e21e1a8894ec,673497ca168457b338178485,2024-11-13_06h15.55.615,Tarea de género gramatical,2024.2.2,Win32,59.88023952,,,,,,,,,,,,,,,,,,,,,,,,404.1561,405.2035,l,1,[],[],[],[],[],[],[],0.38,1,405.2035,405.6967,,,,,,1063,FEM,DIS,150,calle,el,a,0.38,,405.6967,405.6968,0.901851852,0.008333333,0,0,0,,0,170,170,162,1,,,,
,,,,,,f78c49e87d14e30a4578b904,66a626ef09d4e21e1a8894ec,673497ca168457b338178485,2024-11-13_06h15.55.615,Tarea de género gramatical,2024.2.2,Win32,59.88023952,,,,,,,,,,,,,,,,,,,,,,,,405.6975,406.8874,a,1,[],[],[],[],[],[],[],0.5304,1,406.8874,407.3802,,,,,,1344,MAS,CON,150,límite,,l,0.5304,,407.3802,407.3802,0.901851852,0.008333333,0,0,0,,0,171,171,443,1,,,,
,,,,,,f78c49e87d14e30a4578b904,66a626ef09d4e21e1a8894ec,673497ca168457b338178485,2024-11-13_06h15.55.615,Tarea de género gramatical,2024.2.2,Win32,59.88023952,,,,,,,,,,,,,,,,,,,,,,,,407.3811,408.8006,a,1,[],[],[],[],[],[],[],0.7606,1,408.8006,409.3038,,,,,,958,MAS,DIS,150,mono,la,l,0.7606,,409.3039,409.3039,0.901851852,0.008333333,0,0,0,,0,172,172,57,1,,,,
,,,,,,f78c49e87d14e30a4578b904,66a626ef09d4e21e1a8894ec,673497ca168457b338178485,2024-11-13_06h15.55.615,Tarea de género gramatical,2024.2.2,Win32,59.88023952,,,,,,,,,,,,,,,,,,,,,,,,409.3048,410.388,l,1,[],[],[],[],[],[],[],0.4007,1,410.3881,410.88,,,,,,1046,FEM,AGR,150,lana,la,a,0.4007,,410.8808,410.8814,0.901851852,0.008333333,0,0,0,,0,173,173,145,1,,,,
,,,,,,f78c49e87d14e30a4578b904,66a626ef09d4e21e1a8894ec,673497ca168457b338178485,2024-11-13_06h15.55.615,Tarea de género gramatical,2024.2.2,Win32,59.88023952,,,,,,,,,,,,,,,,,,,,,,,,410.8819,411.9716,l,1,[],[],[],[],[],[],[],0.4178,1,411.9717,412.4635,,,,,,955,FEM,DIS,150,taza,el,a,0.4178,,412.4635,412.4637,0.901851852,0.008333333,0,0,0,,0,174,174,54,1,,,,
,,,,,,f78c49e87d14e30a4578b904,66a626ef09d4e21e1a8894ec,673497ca168457b338178485,2024-11-13_06h15.55.615,Tarea de género gramatical,2024.2.2,Win32,59.88023952,,,,,,,,,,,,,,,,,,,,,,,,412.4644,413.48,l,1,[],[],[],[],[],[],[],0.3383,1,413.4801,413.9864,,,,,,1009,FEM,DIS,150,gota,el,a,0.3383,,413.9865,413.9865,0.901851852,0.008333333,0,0,0,,0,175,175,108,1,,,,
,,,,,,f78c49e87d14e30a4578b904,66a626ef09d4e21e1a8894ec,673497ca168457b338178485,2024-11-13_06h15.55.615,Tarea de género gramatical,2024.2.2,Win32,59.88023952,,,,,,,,,,,,,,,,,,,,,,,,413.9873,415.0134,l,1,[],[],[],[],[],[],[],0.3387,1,415.0135,415.5207,,,,,,1177,FEM,DIS,150,plaza,el,a,0.3387,,415.5207,415.5208,0.901851852,0.008333333,0,0,0,,0,176,176,276,1,,,,
,,,,,,f78c49e87d14e30a4578b904,66a626ef09d4e21e1a8894ec,673497ca168457b338178485,2024-11-13_06h15.55.615,Tarea de género gramatical,2024.2.2,Win32,59.88023952,,,,,,,,,,,,,,,,,,,,,,,,415.5217,416.6061,a,1,[],[],[],[],[],[],[],0.4151,1,416.6061,417.0967,,,,,,1176,MAS,CON,150,ritmo,,l,0.4151,,417.0975,417.0981,0.901851852,0.008333333,0,0,0,,0,177,177,275,1,,,,
,,,,,,f78c49e87d14e30a4578b904,66a626ef09d4e21e1a8894ec,673497ca168457b338178485,2024-11-13_06h15.55.615,Tarea de género gramatical,2024.2.2,Win32,59.88023952,,,,,,,,,,,,,,,,,,,,,,,,417.0985,418.1374,l,1,[],[],[],[],[],[],[],0.3804,1,418.1374,418.6371,,,,,,1052,FEM,AGR,150,gente,la,a,0.3804,,418.6372,418.6372,0.901851852,0.008333333,0,0,0,,0,178,178,151,1,,,,
,,,,,,f78c49e87d14e30a4578b904,66a626ef09d4e21e1a8894ec,673497ca168457b338178485,2024-11-13_06h15.55.615,Tarea de género gramatical,2024.2.2,Win32,59.88023952,,,,,,,,,,,,,,,,,,,,,,,,418.6381,419.6708,l,1,[],[],[],[],[],[],[],0.3504,1,419.6708,420.1698,,,,,,939,FEM,CON,150,luna,,a,0.3504,,420.1698,420.1698,0.901851852,0.008333333,0,0,0,,0,179,179,38,1,,,,
,,,,,,f78c49e87d14e30a4578b904,66a626ef09d4e21e1a8894ec,673497ca168457b338178485,2024-11-13_06h15.55.615,Tarea de género gramatical,2024.2.2,Win32,59.88023952,,,,,,,,,,,,,,,,,,,,,,,,420.1706,421.2544,a,1,[],[],[],[],[],[],[],0.4002,1,421.2544,421.7531,,,,,,1260,MAS,CON,150,puente,,l,0.4002,,421.7532,421.7532,0.901851852,0.008333333,0,0,0,,0,180,180,359,1,,,,
,,,,,,f78c49e87d14e30a4578b904,66a626ef09d4e21e1a8894ec,673497ca168457b338178485,2024-11-13_06h15.55.615,Tarea de género gramatical,2024.2.2,Win32,59.88023952,,,,,,,,,,,,,,,,,,,,,,,,421.754,422.8207,l,1,[],[],[],[],[],[],[],0.3976,1,422.8207,423.3204,,,,,,1226,FEM,AGR,150,música,la,a,0.3976,,423.3205,423.3205,0.901851852,0.008333333,0,0,0,,0,181,181,325,1,,,,
,,,,,,f78c49e87d14e30a4578b904,66a626ef09d4e21e1a8894ec,673497ca168457b338178485,2024-11-13_06h15.55.615,Tarea de género gramatical,2024.2.2,Win32,59.88023952,,,,,,,,,,,,,,,,,,,,,,,,423.3212,424.4879,l,1,[],[],[],[],[],[],[],0.4848,1,424.4879,424.98,,,,,,975,FEM,CON,150,caza,,a,0.4848,,424.9808,424.9812,0.901851852,0.008333333,0,0,0,,0,182,182,74,1,,,,
,,,,,,f78c49e87d14e30a4578b904,66a626ef09d4e21e1a8894ec,673497ca168457b338178485,2024-11-13_06h15.55.615,Tarea de género gramatical,2024.2.2,Win32,59.88023952,,,,,,,,,,,,,,,,,,,,,,,,424.9816,426.1207,l,1,[],[],[],[],[],[],[],0.4809,1,426.1208,426.6205,,,,,,1191,FEM,CON,150,aguja,,a,0.4809,,426.6205,426.6206,0.901851852,0.008333333,0,0,0,,0,183,183,290,1,,,,
,,,,,,f78c49e87d14e30a4578b904,66a626ef09d4e21e1a8894ec,673497ca168457b338178485,2024-11-13_06h15.55.615,Tarea de género gramatical,2024.2.2,Win32,59.88023952,,,,,,,,,,,,,,,,,,,,,,,,426.6214,427.7374,l,1,[],[],[],[],[],[],[],0.4338,1,427.7375,428.2372,,,,,,1190,FEM,AGR,150,cabra,la,a,0.4338,,428.2372,428.2373,0.901851852,0.008333333,0,0,0,,0,184,184,289,1,,,,
,,,,,,f78c49e87d14e30a4578b904,66a626ef09d4e21e1a8894ec,673497ca168457b338178485,2024-11-13_06h15.55.615,Tarea de género gramatical,2024.2.2,Win32,59.88023952,,,,,,,,,,,,,,,,,,,,,,,,428.2381,429.3569,a,1,[],[],[],[],[],[],[],0.4373,1,429.3569,429.854,,,,,,1235,MAS,AGR,150,montón,el,l,0.4373,,429.854,429.854,0.901851852,0.008333333,0,0,0,,0,185,185,334,1,,,,
,,,,,,f78c49e87d14e30a4578b904,66a626ef09d4e21e1a8894ec,673497ca168457b338178485,2024-11-13_06h15.55.615,Tarea de género gramatical,2024.2.2,Win32,59.88023952,,,,,,,,,,,,,,,,,,,,,,,,429.8549,430.9301,l,1,[],[],[],[],[],[],[],0.3864,1,430.9302,431.4372,,,,,,1207,FEM,DIS,150,suerte,el,a,0.3864,,431.438,431.4385,0.901851852,0.008333333,0,0,0,,0,186,186,306,1,,,,
,,,,,,f78c49e87d14e30a4578b904,66a626ef09d4e21e1a8894ec,673497ca168457b338178485,2024-11-13_06h15.55.615,Tarea de género gramatical,2024.2.2,Win32,59.88023952,,,,,,,,,,,,,,,,,,,,,,,,431.4389,432.6061,a,1,[],[],[],[],[],[],[],0.4859,1,432.6062,433.1038,,,,,,994,MAS,DIS,150,cabo,la,l,0.4859,,433.1038,433.1039,0.901851852,0.008333333,0,0,0,,0,187,187,93,1,,,,
,,,,,,f78c49e87d14e30a4578b904,66a626ef09d4e21e1a8894ec,673497ca168457b338178485,2024-11-13_06h15.55.615,Tarea de género gramatical,2024.2.2,Win32,59.88023952,,,,,,,,,,,,,,,,,,,,,,,,433.1047,434.2468,l,1,[],[],[],[],[],[],[],0.4689,1,434.2469,434.7373,,,,,,1087,FEM,DIS,150,lista,el,a,0.4689,,434.7373,434.7374,0.901851852,0.008333333,0,0,0,,0,188,188,186,1,,,,
,,,,,,f78c49e87d14e30a4578b904,66a626ef09d4e21e1a8894ec,673497ca168457b338178485,2024-11-13_06h15.55.615,Tarea de género gramatical,2024.2.2,Win32,59.88023952,,,,,,,,,,,,,,,,,,,,,,,,434.7382,435.7539,l,1,[],[],[],[],[],[],[],0.3472,1,435.7539,436.2533,,,,,,1100,FEM,AGR,150,silla,la,a,0.3472,,436.2534,436.2534,0.901851852,0.008333333,0,0,0,,0,189,189,199,1,,,,
,,,,,,f78c49e87d14e30a4578b904,66a626ef09d4e21e1a8894ec,673497ca168457b338178485,2024-11-13_06h15.55.615,Tarea de género gramatical,2024.2.2,Win32,59.88023952,,,,,,,,,,,,,,,,,,,,,,,,436.2542,437.4203,l,1,[],[],[],[],[],[],[],0.4831,1,437.4204,437.9135,,,,,,1329,FEM,CON,150,fianza,,a,0.4831,,437.9136,437.9137,0.901851852,0.008333333,0,0,0,,0,190,190,428,1,,,,
,,,,,,f78c49e87d14e30a4578b904,66a626ef09d4e21e1a8894ec,673497ca168457b338178485,2024-11-13_06h15.55.615,Tarea de género gramatical,2024.2.2,Win32,59.88023952,,,,,,,,,,,,,,,,,,,,,,,,437.9144,439.0045,a,1,[],[],[],[],[],[],[],0.4175,1,439.0046,439.5034,,,,,,984,MAS,CON,150,mago,,l,0.4175,,439.5044,439.5049,0.901851852,0.008333333,0,0,0,,0,191,191,83,1,,,,
,,,,,,f78c49e87d14e30a4578b904,66a626ef09d4e21e1a8894ec,673497ca168457b338178485,2024-11-13_06h15.55.615,Tarea de género gramatical,2024.2.2,Win32,59.88023952,,,,,,,,,,,,,,,,,,,,,,,,439.5053,440.5801,a,1,[],[],[],[],[],[],[],0.3884,1,440.5803,441.0806,,,,,,1241,MAS,AGR,150,precio,el,l,0.3884,,441.0806,441.0809,0.901851852,0.008333333,0,0,0,,0,192,192,340,1,,,,
,,,,,,f78c49e87d14e30a4578b904,66a626ef09d4e21e1a8894ec,673497ca168457b338178485,2024-11-13_06h15.55.615,Tarea de género gramatical,2024.2.2,Win32,59.88023952,,,,,,,,,,,,,,,,,,,,,,,,441.083,442.2041,l,1,[],[],[],[],[],[],[],0.4642,1,442.2042,442.7043,,,,,,944,FEM,AGR,150,zona,la,a,0.4642,,442.7043,442.7044,0.901851852,0.008333333,0,0,0,,0,193,193,43,1,,,,
,,,,,,f78c49e87d14e30a4578b904,66a626ef09d4e21e1a8894ec,673497ca168457b338178485,2024-11-13_06h15.55.615,Tarea de género gramatical,2024.2.2,Win32,59.88023952,,,,,,,,,,,,,,,,,,,,,,,,442.7056,443.7876,a,1,[],[],[],[],[],[],[],0.4014,1,443.7877,444.2872,,,,,,989,MAS,AGR,150,maíz,el,l,0.4014,,444.2873,444.2873,0.901851852,0.008333333,0,0,0,,0,194,194,88,1,,,,
,,,,,,f78c49e87d14e30a4578b904,66a626ef09d4e21e1a8894ec,673497ca168457b338178485,2024-11-13_06h15.55.615,Tarea de género gramatical,2024.2.2,Win32,59.88023952,,,,,,,,,,,,,,,,,,,,,,,,444.2882,445.3802,a,1,[],[],[],[],[],[],[],0.405,1,445.3803,445.8708,,,,,,1230,MAS,CON,150,estado,,l,0.405,,445.8717,445.872,0.901851852,0.008333333,0,0,0,,0,195,195,329,1,,,,
,,,,,,f78c49e87d14e30a4578b904,66a626ef09d4e21e1a8894ec,673497ca168457b338178485,2024-11-13_06h15.55.615,Tarea de género gramatical,2024.2.2,Win32,59.88023952,,,,,,,,,,,,,,,,,,,,,,,,445.8727,447.053,a,1,[],[],[],[],[],[],[],0.5127,1,447.0531,447.5532,,,,,,1295,MAS,AGR,150,correo,el,l,0.5127,,447.5533,447.5533,0.901851852,0.008333333,0,0,0,,0,196,196,394,1,,,,
,,,,,,f78c49e87d14e30a4578b904,66a626ef09d4e21e1a8894ec,673497ca168457b338178485,2024-11-13_06h15.55.615,Tarea de género gramatical,2024.2.2,Win32,59.88023952,,,,,,,,,,,,,,,,,,,,,,,,447.5542,448.5873,l,1,[],[],[],[],[],[],[],0.3677,1,448.5874,449.0862,,,,,,1196,FEM,AGR,150,feria,la,a,0.3677,,449.0862,449.0863,0.901851852,0.008333333,0,0,0,,0,197,197,295,1,,,,
,,,,,,f78c49e87d14e30a4578b904,66a626ef09d4e21e1a8894ec,673497ca168457b338178485,2024-11-13_06h15.55.615,Tarea de género gramatical,2024.2.2,Win32,59.88023952,,,,,,,,,,,,,,,,,,,,,,,,449.0872,450.1367,a,1,[],[],[],[],[],[],[],0.3664,1,450.1368,450.6363,,,,,,1330,MAS,DIS,150,título,la,l,0.3664,,450.6363,450.6365,0.901851852,0.008333333,0,0,0,,0,198,198,429,1,,,,
,,,,,,f78c49e87d14e30a4578b904,66a626ef09d4e21e1a8894ec,673497ca168457b338178485,2024-11-13_06h15.55.615,Tarea de género gramatical,2024.2.2,Win32,59.88023952,,,,,,,,,,,,,,,,,,,,,,,,450.6373,451.7541,a,1,[],[],[],[],[],[],[],0.4334,1,451.7541,452.2467,,,,,,1229,MAS,AGR,150,futuro,el,l,0.4334,,452.2467,452.2469,0.901851852,0.008333333,0,0,0,,0,199,199,328,1,,,,
,,,,,,f78c49e87d14e30a4578b904,66a626ef09d4e21e1a8894ec,673497ca168457b338178485,2024-11-13_06h15.55.615,Tarea de género gramatical,2024.2.2,Win32,59.88023952,,,,,,,,,,,,,,,,,,,,,,,,452.2476,453.2634,a,1,[],[],[],[],[],[],[],0.3471,1,453.2635,453.7538,,,,,,1252,MAS,DIS,150,estilo,la,l,0.3471,,453.7546,453.7551,0.901851852,0.008333333,0,0,0,,0,200,200,351,1,,,,
,,,,,,f78c49e87d14e30a4578b904,66a626ef09d4e21e1a8894ec,673497ca168457b338178485,2024-11-13_06h15.55.615,Tarea de género gramatical,2024.2.2,Win32,59.88023952,,,,,,,,,,,,,,,,,,,,,,,,453.7555,454.7713,a,1,[],[],[],[],[],[],[],0.3475,1,454.7713,455.2703,,,,,,1216,MAS,DIS,150,cuerpo,la,l,0.3475,,455.2703,455.2704,0.901851852,0.008333333,0,0,0,,0,201,201,315,1,,,,
,,,,,,f78c49e87d14e30a4578b904,66a626ef09d4e21e1a8894ec,673497ca168457b338178485,2024-11-13_06h15.55.615,Tarea de género gramatical,2024.2.2,Win32,59.88023952,,,,,,,,,,,,,,,,,,,,,,,,455.2712,456.3209,l,1,[],[],[],[],[],[],[],0.367,1,456.3209,456.8203,,,,,,1113,FEM,CON,150,magia,,a,0.367,,456.8203,456.8204,0.901851852,0.008333333,0,0,0,,0,202,202,212,1,,,,
,,,,,,f78c49e87d14e30a4578b904,66a626ef09d4e21e1a8894ec,673497ca168457b338178485,2024-11-13_06h15.55.615,Tarea de género gramatical,2024.2.2,Win32,59.88023952,,,,,,,,,,,,,,,,,,,,,,,,456.8212,457.8541,a,1,[],[],[],[],[],[],[],0.3645,1,457.8541,458.3468,,,,,,940,MAS,DIS,150,dios,la,l,0.3645,,458.3468,458.3468,0.901851852,0.008333333,0,0,0,,0,203,203,39,1,,,,
,,,,,,f78c49e87d14e30a4578b904,66a626ef09d4e21e1a8894ec,673497ca168457b338178485,2024-11-13_06h15.55.615,Tarea de género gramatical,2024.2.2,Win32,59.88023952,,,,,,,,,,,,,,,,,,,,,,,,458.3475,459.6708,a,1,[],[],[],[],[],[],[],0.6338,1,459.6709,460.1635,,,,,,1308,MAS,CON,150,cheque,,l,0.6338,,460.1644,460.1652,0.901851852,0.008333333,0,0,0,,0,204,204,407,1,,,,
,,,,,,f78c49e87d14e30a4578b904,66a626ef09d4e21e1a8894ec,673497ca168457b338178485,2024-11-13_06h15.55.615,Tarea de género gramatical,2024.2.2,Win32,59.88023952,,,,,,,,,,,,,,,,,,,,,,,,460.1657,461.1357,a,1,[],[],[],[],[],[],[],0.3131,1,461.1357,461.6302,,,,,,936,MAS,CON,150,dedo,,l,0.3131,,461.6303,461.6304,0.901851852,0.008333333,0,0,0,,0,205,205,35,1,,,,
,,,,,,f78c49e87d14e30a4578b904,66a626ef09d4e21e1a8894ec,673497ca168457b338178485,2024-11-13_06h15.55.615,Tarea de género gramatical,2024.2.2,Win32,59.88023952,,,,,,,,,,,,,,,,,,,,,,,,461.6311,462.7135,l,1,[],[],[],[],[],[],[],0.4047,1,462.7136,463.2201,,,,,,1111,FEM,DIS,150,salud,el,a,0.4047,,463.2201,463.2202,0.901851852,0.008333333,0,0,0,,0,206,206,210,1,,,,
,,,,,,f78c49e87d14e30a4578b904,66a626ef09d4e21e1a8894ec,673497ca168457b338178485,2024-11-13_06h15.55.615,Tarea de género gramatical,2024.2.2,Win32,59.88023952,,,,,,,,,,,,,,,,,,,,,,,,463.2211,464.2543,l,1,[],[],[],[],[],[],[],0.3507,1,464.2543,464.754,,,,,,1149,FEM,CON,150,crema,,a,0.3507,,464.754,464.7541,0.901851852,0.008333333,0,0,0,,0,207,207,248,1,,,,
,,,,,,f78c49e87d14e30a4578b904,66a626ef09d4e21e1a8894ec,673497ca168457b338178485,2024-11-13_06h15.55.615,Tarea de género gramatical,2024.2.2,Win32,59.88023952,,,,,,,,,,,,,,,,,,,,,,,,464.7549,465.7875,a,1,[],[],[],[],[],[],[],0.351,1,465.7877,466.2801,,,,,,1068,MAS,CON,150,sitio,,l,0.351,,466.2802,466.2802,0.901851852,0.008333333,0,0,0,,0,208,208,167,1,,,,
,,,,,,f78c49e87d14e30a4578b904,66a626ef09d4e21e1a8894ec,673497ca168457b338178485,2024-11-13_06h15.55.615,Tarea de género gramatical,2024.2.2,Win32,59.88023952,,,,,,,,,,,,,,,,,,,,,,,,466.281,467.4709,l,1,[],[],[],[],[],[],[],0.517,1,467.4711,467.9704,,,,,,1231,FEM,DIS,150,cárcel,el,a,0.517,,467.9713,467.9718,0.901851852,0.008333333,0,0,0,,0,209,209,330,1,,,,
,,,,,,f78c49e87d14e30a4578b904,66a626ef09d4e21e1a8894ec,673497ca168457b338178485,2024-11-13_06h15.55.615,Tarea de género gramatical,2024.2.2,Win32,59.88023952,,,,,,,,,,,,,,,,,,,,,,,,467.9725,469.0892,l,1,[],[],[],[],[],[],[],0.4349,1,469.0893,469.5801,,,,,,1201,FEM,DIS,150,verdad,el,a,0.4349,,469.5802,469.5803,0.901851852,0.008333333,0,0,0,,0,210,210,300,1,,,,
,,,,,,f78c49e87d14e30a4578b904,66a626ef09d4e21e1a8894ec,673497ca168457b338178485,2024-11-13_06h15.55.615,Tarea de género gramatical,2024.2.2,Win32,59.88023952,,,,,,,,,,,,,,,,,,,,,,,,469.5812,470.6376,a,1,[],[],[],[],[],[],[],0.3797,1,470.6377,471.1302,,,,,,1174,MAS,DIS,150,motor,la,l,0.3797,,471.1302,471.1303,0.901851852,0.008333333,0,0,0,,0,211,211,273,1,,,,
,,,,,,f78c49e87d14e30a4578b904,66a626ef09d4e21e1a8894ec,673497ca168457b338178485,2024-11-13_06h15.55.615,Tarea de género gramatical,2024.2.2,Win32,59.88023952,,,,,,,,,,,,,,,,,,,,,,,,471.1311,472.0874,l,1,[],[],[],[],[],[],[],0.2952,1,472.0875,472.5843,,,,,,1311,FEM,CON,150,actriz,,a,0.2952,,472.5844,472.5844,0.901851852,0.008333333,0,0,0,,0,212,212,410,1,,,,
,,,,,,f78c49e87d14e30a4578b904,66a626ef09d4e21e1a8894ec,673497ca168457b338178485,2024-11-13_06h15.55.615,Tarea de género gramatical,2024.2.2,Win32,59.88023952,,,,,,,,,,,,,,,,,,,,,,,,472.5851,473.721,l,1,[],[],[],[],[],[],[],0.4513,1,473.721,474.2205,,,,,,1250,FEM,AGR,150,imagen,la,a,0.4513,,474.2213,474.2218,0.901851852,0.008333333,0,0,0,,0,213,213,349,1,,,,
,,,,,,f78c49e87d14e30a4578b904,66a626ef09d4e21e1a8894ec,673497ca168457b338178485,2024-11-13_06h15.55.615,Tarea de género gramatical,2024.2.2,Win32,59.88023952,,,,,,,,,,,,,,,,,,,,,,,,474.2223,475.3536,l,1,[],[],[],[],[],[],[],0.4499,1,475.3536,475.8469,,,,,,962,FEM,AGR,150,sopa,la,a,0.4499,,475.847,475.847,0.901851852,0.008333333,0,0,0,,0,214,214,61,1,,,,
,,,,,,f78c49e87d14e30a4578b904,66a626ef09d4e21e1a8894ec,673497ca168457b338178485,2024-11-13_06h15.55.615,Tarea de género gramatical,2024.2.2,Win32,59.88023952,,,,,,,,,,,,,,,,,,,,,,,,475.8477,477.0366,l,1,[],[],[],[],[],[],[],0.5168,1,477.0366,477.5335,,,,,,1257,FEM,CON,150,lengua,,a,0.5168,,477.5336,477.5337,0.901851852,0.008333333,0,0,0,,0,215,215,356,1,,,,
,,,,,,f78c49e87d14e30a4578b904,66a626ef09d4e21e1a8894ec,673497ca168457b338178485,2024-11-13_06h15.55.615,Tarea de género gramatical,2024.2.2,Win32,59.88023952,,,,,,,,,,,,,,,,,,,,,,,,477.5346,478.7969,l,1,[],[],[],[],[],[],[],0.587,1,478.797,479.3038,,,,,,998,FEM,AGR,150,fuga,la,a,0.587,,479.3038,479.3039,0.901851852,0.008333333,0,0,0,,0,216,216,97,1,,,,
,,,,,,f78c49e87d14e30a4578b904,66a626ef09d4e21e1a8894ec,673497ca168457b338178485,2024-11-13_06h15.55.615,Tarea de género gramatical,2024.2.2,Win32,59.88023952,,,,,,,,,,,,,,,,,,,,,,,,479.3049,480.3674,a,1,[],[],[],[],[],[],[],0.3969,1,480.3676,480.8695,,,,,,1013,MAS,AGR,150,toro,el,l,0.3969,,480.8696,480.8696,0.901851852,0.008333333,0,0,0,,0,217,217,112,1,,,,
,,,,,,f78c49e87d14e30a4578b904,66a626ef09d4e21e1a8894ec,673497ca168457b338178485,2024-11-13_06h15.55.615,Tarea de género gramatical,2024.2.2,Win32,59.88023952,,,,,,,,,,,,,,,,,,,,,,,,480.8709,481.8874,a,1,[],[],[],[],[],[],[],0.3338,1,481.8875,482.3802,,,,,,942,MAS,CON,150,show,,l,0.3338,,482.3813,482.382,0.901851852,0.008333333,0,0,0,,0,218,218,41,1,,,,
,,,,,,f78c49e87d14e30a4578b904,66a626ef09d4e21e1a8894ec,673497ca168457b338178485,2024-11-13_06h15.55.615,Tarea de género gramatical,2024.2.2,Win32,59.88023952,,,,,,,,,,,,,,,,,,,,,,,,482.3827,483.4135,a,1,[],[],[],[],[],[],[],0.3361,1,483.4135,483.9024,,,,,,917,MAS,AGR,150,modo,el,l,0.3361,,483.9024,483.9024,0.901851852,0.008333333,0,0,0,,0,219,219,16,1,,,,
,,,,,,f78c49e87d14e30a4578b904,66a626ef09d4e21e1a8894ec,673497ca168457b338178485,2024-11-13_06h15.55.615,Tarea de género gramatical,2024.2.2,Win32,59.88023952,,,,,,,,,,,,,,,,,,,,,,,,483.9032,484.9539,l,1,[],[],[],[],[],[],[],0.3967,1,484.9541,485.4469,,,,,,1075,FEM,DIS,150,señal,el,a,0.3967,,485.4469,485.447,0.901851852,0.008333333,0,0,0,,0,220,220,174,1,,,,
,,,,,,f78c49e87d14e30a4578b904,66a626ef09d4e21e1a8894ec,673497ca168457b338178485,2024-11-13_06h15.55.615,Tarea de género gramatical,2024.2.2,Win32,59.88023952,,,,,,,,,,,,,,,,,,,,,,,,485.4478,486.5204,a,1,[],[],[],[],[],[],[],0.4,1,486.5205,487.0201,,,,,,1296,MAS,CON,150,tesoro,,l,0.4,,487.0202,487.0202,0.901851852,0.008333333,0,0,0,,0,221,221,395,1,,,,
,,,,,,f78c49e87d14e30a4578b904,66a626ef09d4e21e1a8894ec,673497ca168457b338178485,2024-11-13_06h15.55.615,Tarea de género gramatical,2024.2.2,Win32,59.88023952,,,,,,,,,,,,,,,,,,,,,,,,487.0211,488.0043,l,1,[],[],[],[],[],[],[],0.3008,1,488.0043,488.504,,,,,,1058,FEM,AGR,150,chica,la,a,0.3008,,488.505,488.5054,0.901851852,0.008333333,0,0,0,,0,222,222,157,1,,,,
,,,,,,f78c49e87d14e30a4578b904,66a626ef09d4e21e1a8894ec,673497ca168457b338178485,2024-11-13_06h15.55.615,Tarea de género gramatical,2024.2.2,Win32,59.88023952,,,,,,,,,,,,,,,,,,,,,,,,488.506,489.5708,l,1,[],[],[],[],[],[],[],0.3975,1,489.5709,490.0635,,,,,,1225,FEM,DIS,150,tierra,el,a,0.3975,,490.0635,490.0637,0.901851852,0.008333333,0,0,0,,0,223,223,324,1,,,,
,,,,,,f78c49e87d14e30a4578b904,66a626ef09d4e21e1a8894ec,673497ca168457b338178485,2024-11-13_06h15.55.615,Tarea de género gramatical,2024.2.2,Win32,59.88023952,,,,,,,,,,,,,,,,,,,,,,,,490.0645,491.3876,l,1,[],[],[],[],[],[],[],0.6521,1,491.3877,491.8805,,,,,,1155,FEM,CON,150,tribu,,a,0.6521,,491.8806,491.8806,0.901851852,0.008333333,0,0,0,,0,224,224,254,1,,,,
,,,,,,f78c49e87d14e30a4578b904,66a626ef09d4e21e1a8894ec,673497ca168457b338178485,2024-11-13_06h15.55.615,Tarea de género gramatical,2024.2.2,Win32,59.88023952,,,,,,,,,,,,,,,,,,,,,,,,491.8818,492.9374,a,1,[],[],[],[],[],[],[],0.3846,1,492.9376,493.4371,,,,,,995,MAS,AGR,150,tomo,el,l,0.3846,,493.4371,493.4372,0.901851852,0.008333333,0,0,0,,0,225,225,94,1,,,,
,,,,,,f78c49e87d14e30a4578b904,66a626ef09d4e21e1a8894ec,673497ca168457b338178485,2024-11-13_06h15.55.615,Tarea de género gramatical,2024.2.2,Win32,59.88023952,,,,,,,,,,,,,,,,,,,,,,,,493.4382,494.5208,l,1,[],[],[],[],[],[],[],0.4139,1,494.5209,495.0206,,,,,,1213,FEM,DIS,150,ciudad,el,a,0.4139,,495.0206,495.0207,0.901851852,0.008333333,0,0,0,,0,226,226,312,1,,,,
,,,,,,f78c49e87d14e30a4578b904,66a626ef09d4e21e1a8894ec,673497ca168457b338178485,2024-11-13_06h15.55.615,Tarea de género gramatical,2024.2.2,Win32,59.88023952,,,,,,,,,,,,,,,,,,,,,,,,495.0216,496.0802,l,1,[],[],[],[],[],[],[],0.3724,1,496.0803,496.5874,,,,,,926,FEM,AGR,150,pena,la,a,0.3724,,496.5881,496.5887,0.901851852,0.008333333,0,0,0,,0,227,227,25,1,,,,
,,,,,,f78c49e87d14e30a4578b904,66a626ef09d4e21e1a8894ec,673497ca168457b338178485,2024-11-13_06h15.55.615,Tarea de género gramatical,2024.2.2,Win32,59.88023952,,,,,,,,,,,,,,,,,,,,,,,,496.5897,497.6635,l,1,[],[],[],[],[],[],[],0.4057,1,497.6636,498.1532,,,,,,1285,FEM,DIS,150,muñeca,el,a,0.4057,,498.1533,498.1535,0.901851852,0.008333333,0,0,0,,0,228,228,384,1,,,,
,,,,,,f78c49e87d14e30a4578b904,66a626ef09d4e21e1a8894ec,673497ca168457b338178485,2024-11-13_06h15.55.615,Tarea de género gramatical,2024.2.2,Win32,59.88023952,,,,,,,,,,,,,,,,,,,,,,,,498.1556,499.2304,a,1,[],[],[],[],[],[],[],0.39,1,499.2304,499.7206,,,,,,1072,MAS,DIS,150,poder,la,l,0.39,,499.7206,499.7207,0.901851852,0.008333333,0,0,0,,0,229,229,171,1,,,,
,,,,,,f78c49e87d14e30a4578b904,66a626ef09d4e21e1a8894ec,673497ca168457b338178485,2024-11-13_06h15.55.615,Tarea de género gramatical,2024.2.2,Win32,59.88023952,,,,,,,,,,,,,,,,,,,,,,,,499.7216,500.8033,a,1,[],[],[],[],[],[],[],0.4003,1,500.8034,501.3039,,,,,,1240,MAS,DIS,150,pasado,la,l,0.4003,,501.304,501.3041,0.901851852,0.008333333,0,0,0,,0,230,230,339,1,,,,
,,,,,,f78c49e87d14e30a4578b904,66a626ef09d4e21e1a8894ec,673497ca168457b338178485,2024-11-13_06h15.55.615,Tarea de género gramatical,2024.2.2,Win32,59.88023952,,,,,,,,,,,,,,,,,,,,,,,,501.3049,502.3708,a,1,[],[],[],[],[],[],[],0.3967,1,502.3709,502.8636,,,,,,1140,MAS,CON,150,ruido,,l,0.3967,,502.8645,502.865,0.901851852,0.008333333,0,0,0,,0,231,231,239,1,,,,
,,,,,,f78c49e87d14e30a4578b904,66a626ef09d4e21e1a8894ec,673497ca168457b338178485,2024-11-13_06h15.55.615,Tarea de género gramatical,2024.2.2,Win32,59.88023952,,,,,,,,,,,,,,,,,,,,,,,,502.8654,503.8708,a,1,[],[],[],[],[],[],[],0.3338,1,503.8709,504.3634,,,,,,1336,MAS,DIS,150,objeto,la,l,0.3338,,504.3635,504.3635,0.901851852,0.008333333,0,0,0,,0,232,232,435,1,,,,
,,,,,,f78c49e87d14e30a4578b904,66a626ef09d4e21e1a8894ec,673497ca168457b338178485,2024-11-13_06h15.55.615,Tarea de género gramatical,2024.2.2,Win32,59.88023952,,,,,,,,,,,,,,,,,,,,,,,,504.3643,505.5543,a,1,[],[],[],[],[],[],[],0.5174,1,505.5544,506.0541,,,,,,1320,MAS,CON,150,helado,,l,0.5174,,506.0541,506.0541,0.901851852,0.008333333,0,0,0,,0,233,233,419,1,,,,
,,,,,,f78c49e87d14e30a4578b904,66a626ef09d4e21e1a8894ec,673497ca168457b338178485,2024-11-13_06h15.55.615,Tarea de género gramatical,2024.2.2,Win32,59.88023952,,,,,,,,,,,,,,,,,,,,,,,,506.0551,507.3041,l,0,[],[],[],[],[],[],[],0.5678,0,507.3046,507.804,,,,,,1048,MAS,DIS,150,surf,la,l,0.5678,,507.8041,507.8042,0.901851852,0.008333333,0,0,0,,0,234,234,147,1,,,,
,,,,,,f78c49e87d14e30a4578b904,66a626ef09d4e21e1a8894ec,673497ca168457b338178485,2024-11-13_06h15.55.615,Tarea de género gramatical,2024.2.2,Win32,59.88023952,,,,,,,,,,,,,,,,,,,,,,,,507.8052,508.9867,l,1,[],[],[],[],[],[],[],0.5002,1,508.9873,509.4802,,,,,,938,FEM,AGR,150,obra,la,a,0.5002,,509.4802,509.4802,0.901851852,0.008333333,0,0,0,,0,235,235,37,1,,,,
,,,,,,f78c49e87d14e30a4578b904,66a626ef09d4e21e1a8894ec,673497ca168457b338178485,2024-11-13_06h15.55.615,Tarea de género gramatical,2024.2.2,Win32,59.88023952,,,,,,,,,,,,,,,,,,,,,,,,509.481,510.8192,a,1,[],[],[],[],[],[],[],0.6658,1,510.8192,511.3201,,,,,,1242,MAS,CON,150,abuelo,,l,0.6658,,511.321,511.3214,0.901851852,0.008333333,0,0,0,,0,236,236,341,1,,,,
,,,,,,f78c49e87d14e30a4578b904,66a626ef09d4e21e1a8894ec,673497ca168457b338178485,2024-11-13_06h15.55.615,Tarea de género gramatical,2024.2.2,Win32,59.88023952,,,,,,,,,,,,,,,,,,,,,,,,511.3219,512.497,l,1,[],[],[],[],[],[],[],0.4894,1,512.4972,512.9868,,,,,,1131,FEM,CON,150,bruja,,a,0.4894,,512.9869,512.9869,0.901851852,0.008333333,0,0,0,,0,237,237,230,1,,,,
,,,,,,f78c49e87d14e30a4578b904,66a626ef09d4e21e1a8894ec,673497ca168457b338178485,2024-11-13_06h15.55.615,Tarea de género gramatical,2024.2.2,Win32,59.88023952,,,,,,,,,,,,,,,,,,,,,,,,512.9878,514.1135,l,1,[],[],[],[],[],[],[],0.4678,1,514.1135,514.6056,,,,,,961,FEM,DIS,150,ruta,el,a,0.4678,,514.6056,514.6057,0.901851852,0.008333333,0,0,0,,0,238,238,60,1,,,,
,,,,,,f78c49e87d14e30a4578b904,66a626ef09d4e21e1a8894ec,673497ca168457b338178485,2024-11-13_06h15.55.615,Tarea de género gramatical,2024.2.2,Win32,59.88023952,,,,,,,,,,,,,,,,,,,,,,,,514.6065,515.7542,a,1,[],[],[],[],[],[],[],0.4681,1,515.7542,516.2474,,,,,,929,MAS,AGR,150,frío,el,l,0.4681,,516.2474,516.2477,0.901851852,0.008333333,0,0,0,,0,239,239,28,1,,,,
,,,,,,f78c49e87d14e30a4578b904,66a626ef09d4e21e1a8894ec,673497ca168457b338178485,2024-11-13_06h15.55.615,Tarea de género gramatical,2024.2.2,Win32,59.88023952,,,,,,,,,,,,,,,,,,,,,,,,516.2501,517.3364,a,1,[],[],[],[],[],[],[],0.4162,1,517.3365,517.8371,,,,,,922,MAS,DIS,150,pelo,la,l,0.4162,,517.838,517.8383,0.901851852,0.008333333,0,0,0,,0,240,240,21,1,,,,
,,,,,,f78c49e87d14e30a4578b904,66a626ef09d4e21e1a8894ec,673497ca168457b338178485,2024-11-13_06h15.55.615,Tarea de género gramatical,2024.2.2,Win32,59.88023952,,,,,,,,,,,,,,,,,,,,,,,,517.8387,518.9713,l,1,[],[],[],[],[],[],[],0.4508,1,518.9713,519.4636,,,,,,1053,FEM,CON,150,mujer,,a,0.4508,,519.4636,519.4638,0.901851852,0.008333333,0,0,0,,0,241,241,152,1,,,,
,,,,,,f78c49e87d14e30a4578b904,66a626ef09d4e21e1a8894ec,673497ca168457b338178485,2024-11-13_06h15.55.615,Tarea de género gramatical,2024.2.2,Win32,59.88023952,,,,,,,,,,,,,,,,,,,,,,,,519.4647,521.2636,a,1,[],[],[],[],[],[],[],1.1201,1,521.2637,521.7705,,,,,,1283,MAS,AGR,150,parque,el,l,1.1201,,521.7706,521.7706,0.901851852,0.008333333,0,0,0,,0,242,242,382,1,,,,
,,,,,,f78c49e87d14e30a4578b904,66a626ef09d4e21e1a8894ec,673497ca168457b338178485,2024-11-13_06h15.55.615,Tarea de género gramatical,2024.2.2,Win32,59.88023952,,,,,,,,,,,,,,,,,,,,,,,,521.7714,522.8375,a,1,[],[],[],[],[],[],[],0.3868,1,522.8376,523.3373,,,,,,1204,MAS,DIS,150,tiempo,la,l,0.3868,,523.3374,523.3374,0.901851852,0.008333333,0,0,0,,0,243,243,303,1,,,,
,,,,,,f78c49e87d14e30a4578b904,66a626ef09d4e21e1a8894ec,673497ca168457b338178485,2024-11-13_06h15.55.615,Tarea de género gramatical,2024.2.2,Win32,59.88023952,,,,,,,,,,,,,,,,,,,,,,,,523.3382,524.4711,l,1,[],[],[],[],[],[],[],0.4505,1,524.4711,524.9636,,,,,,1106,FEM,AGR,150,época,la,a,0.4505,,524.9637,524.9638,0.901851852,0.008333333,0,0,0,,0,244,244,205,1,,,,
,,,,,,f78c49e87d14e30a4578b904,66a626ef09d4e21e1a8894ec,673497ca168457b338178485,2024-11-13_06h15.55.615,Tarea de género gramatical,2024.2.2,Win32,59.88023952,,,,,,,,,,,,,,,,,,,,,,,,524.9646,526.0302,l,1,[],[],[],[],[],[],[],0.3917,1,526.0303,526.5365,,,,,,1305,FEM,CON,150,parada,,a,0.3917,,526.5374,526.5379,0.901851852,0.008333333,0,0,0,,0,245,245,404,1,,,,
,,,,,,f78c49e87d14e30a4578b904,66a626ef09d4e21e1a8894ec,673497ca168457b338178485,2024-11-13_06h15.55.615,Tarea de género gramatical,2024.2.2,Win32,59.88023952,,,,,,,,,,,,,,,,,,,,,,,,526.5383,527.6376,l,1,[],[],[],[],[],[],[],0.4354,1,527.6376,528.1372,,,,,,1093,FEM,DIS,150,bolsa,el,a,0.4354,,528.1373,528.1373,0.901851852,0.008333333,0,0,0,,0,246,246,192,1,,,,
,,,,,,f78c49e87d14e30a4578b904,66a626ef09d4e21e1a8894ec,673497ca168457b338178485,2024-11-13_06h15.55.615,Tarea de género gramatical,2024.2.2,Win32,59.88023952,,,,,,,,,,,,,,,,,,,,,,,,528.1382,529.1707,a,1,[],[],[],[],[],[],[],0.3504,1,529.1708,529.6705,,,,,,971,MAS,AGR,150,pozo,el,l,0.3504,,529.6705,529.6706,0.901851852,0.008333333,0,0,0,,0,247,247,70,1,,,,
,,,,,,f78c49e87d14e30a4578b904,66a626ef09d4e21e1a8894ec,673497ca168457b338178485,2024-11-13_06h15.55.615,Tarea de género gramatical,2024.2.2,Win32,59.88023952,,,,,,,,,,,,,,,,,,,,,,,,529.6715,530.7038,a,1,[],[],[],[],[],[],[],0.3501,1,530.7039,531.1968,,,,,,1300,MAS,DIS,150,barrio,la,l,0.3501,,531.1969,531.197,0.901851852,0.008333333,0,0,0,,0,248,248,399,1,,,,
,,,,,,f78c49e87d14e30a4578b904,66a626ef09d4e21e1a8894ec,673497ca168457b338178485,2024-11-13_06h15.55.615,Tarea de género gramatical,2024.2.2,Win32,59.88023952,,,,,,,,,,,,,,,,,,,,,,,,531.1977,532.2221,a,1,[],[],[],[],[],[],[],0.3346,1,532.2223,532.7135,,,,,,978,MAS,CON,150,oído,,l,0.3346,,532.7143,532.7147,0.901851852,0.008333333,0,0,0,,0,249,249,77,1,,,,
,,,,,,f78c49e87d14e30a4578b904,66a626ef09d4e21e1a8894ec,673497ca168457b338178485,2024-11-13_06h15.55.615,Tarea de género gramatical,2024.2.2,Win32,59.88023952,,,,,,,,,,,,,,,,,,,,,,,,532.7151,533.7208,l,1,[],[],[],[],[],[],[],0.3479,1,533.7209,534.214,,,,,,1214,FEM,AGR,150,señora,la,a,0.3479,,534.2141,534.2144,0.901851852,0.008333333,0,0,0,,0,250,250,313,1,,,,
,,,,,,f78c49e87d14e30a4578b904,66a626ef09d4e21e1a8894ec,673497ca168457b338178485,2024-11-13_06h15.55.615,Tarea de género gramatical,2024.2.2,Win32,59.88023952,,,,,,,,,,,,,,,,,,,,,,,,534.2169,535.2137,a,1,[],[],[],[],[],[],[],0.3225,1,535.2137,535.7037,,,,,,1181,MAS,AGR,150,actor,el,l,0.3225,,535.7037,535.7038,0.901851852,0.008333333,0,0,0,,0,251,251,280,1,,,,
