counterbalancing_condition,consent_prescreening.block_1/declare_consent,consent_prescreening.block_1/age_years,consent_prescreening.block_1/gender,consent_prescreening.block_1/language_disorder,consent_prescreening.block_1/first_language,PROLIFIC_PID,STUDY_ID,SESSION_ID,date,expName,psychopyVersion,OS,frameRate,check_prescreening_answers.started,check_prescreening_answers.stopped,Instructions.started,Instructions.stopped,instr_done_keyboard.keys,instr_done_keyboard.rt,instr_done_keyboard.duration,instr_done_touch.x,instr_done_touch.y,instr_done_touch.leftButton,instr_done_touch.midButton,instr_done_touch.rightButton,instruction_pages.thisRepN,instruction_pages.thisTrialN,instruction_pages.thisN,instruction_pages.thisIndex,instruction_pages.ran,pageN,phase,instruct_text,has_image,instruct_image,presentTrial.started,presentTrial.stopped,response.keys,response.corr,response.rt,response.duration,touch_resp.x,touch_resp.y,touch_resp.leftButton,touch_resp.midButton,touch_resp.rightButton,touch_resp.time,touch_resp.clicked_name,rt,corr,feedback.started,feedback.stopped,practice_trials.thisRepN,practice_trials.thisTrialN,practice_trials.thisN,practice_trials.thisIndex,practice_trials.ran,TrialID,StimulusType,Condition,PrimeDuration,Prime,Flanker,corrAns,Break.started,Break.stopped,break_done_touch.x,break_done_touch.y,break_done_touch.leftButton,break_done_touch.midButton,break_done_touch.rightButton,break_done_keyboard.keys,experiment_trials.thisRepN,experiment_trials.thisTrialN,experiment_trials.thisN,experiment_trials.thisIndex,experiment_trials.ran,break_done_keyboard.rt,break_done_keyboard.duration,End.started,End.stopped
1,"[""over_18"",""comfortable"",""read_info"",""consent_given""]",29,M,"[""none""]","[""spanish""]",f8d8455cf826f76fd9a75dee,66a626ef09d4e21e1a8894ec,6734e031a56e451743d067b2,2024-11-13_14h22.23.364,Tarea de género gramatical,2024.2.2,Win32,144.092219,,,,,,,,,,,,,,,,,,,,,,,,,,,,,,,,,,,,,,,,,,,,,,,,,,,,,,,,,,,,,,,,,,,,
,,,,,,f8d8455cf826f76fd9a75dee,66a626ef09d4e21e1a8894ec,6734e031a56e451743d067b2,2024-11-13_14h22.23.364,Tarea de género gramatical,2024.2.2,Win32,144.092219,28.061,28.061,,,,,,,,,,,,,,,,,,,,,,,,,,,,,,,,,,,,,,,,,,,,,,,,,,,,,,,,,,,,,,,,,,
,,,,,,f8d8455cf826f76fd9a75dee,66a626ef09d4e21e1a8894ec,6734e031a56e451743d067b2,2024-11-13_14h22.23.364,Tarea de género gramatical,2024.2.2,Win32,144.092219,,,28.071,38.459,space,10.36,,0.214074074,-0.067407407,0,0,0,0,0,0,0,1,1,instructions,"INSTRUCCIONES
Va a realizar una prueba de selección gramatical. Desde el comienzo de la prueba mire siempre al centro de la pantalla. Al cabo de un momento, aparecerán palabras. La tarea consiste en determinar si la palabra del centro (siempre será un sustantivo), pertenece al género masculino o femenino.

Pulse la tecla ESPACIO o toque el botón de abajo para continuar.",0,keyboardresponseFM.png,,,,,,,,,,,,,,,,,,,,,,,,,,,,,,,,,,,,,,,,,,,,,,
,,,,,,f8d8455cf826f76fd9a75dee,66a626ef09d4e21e1a8894ec,6734e031a56e451743d067b2,2024-11-13_14h22.23.364,Tarea de género gramatical,2024.2.2,Win32,144.092219,,,38.462,44.21,space,5.696,,0.214074074,-0.067407407,0,0,0,0,1,1,1,1,2,instructions,"Si su dispositivo tiene teclado, pulse la tecla ""A"" para las palabras en femenino (por ejemplo: ""mano"") y la tecla ""L"" para las palabras en masculino(por ejemplo: ""arroz"").
Pulse la tecla ESPACIO o toque el botón de abajo para continuar.",1,keyboardresponseFM.png,,,,,,,,,,,,,,,,,,,,,,,,,,,,,,,,,,,,,,,,,,,,,,
,,,,,,f8d8455cf826f76fd9a75dee,66a626ef09d4e21e1a8894ec,6734e031a56e451743d067b2,2024-11-13_14h22.23.364,Tarea de género gramatical,2024.2.2,Win32,144.092219,,,44.211,55.321,space,11.07,,0.214074074,-0.067407407,0,0,0,0,2,2,2,1,3,instructions,"Si utiliza un dispositivo sólo táctil, colóquelo en horizontal y utilice los botones de la pantalla. No utilice el ratón.
Pulse la tecla ESPACIO o toque el botón de abajo para continuar.",2,touchresponseFM.png,,,,,,,,,,,,,,,,,,,,,,,,,,,,,,,,,,,,,,,,,,,,,,
,,,,,,f8d8455cf826f76fd9a75dee,66a626ef09d4e21e1a8894ec,6734e031a56e451743d067b2,2024-11-13_14h22.23.364,Tarea de género gramatical,2024.2.2,Win32,144.092219,,,55.324,80.586,space,25.247,,0.214074074,-0.067407407,0,0,0,0,3,3,3,1,4,instructions,"Es muy importante que responda con la mayor rapidez y precisión posibles, ya que cada cadena de letras sólo estará en pantalla durante un instante. Si no responde en ese tiempo, aparecerá el mensaje ""Muy lento"" y el experimento pasará a la siguiente palabra. Los primeros 15 intentos serán de práctica y habrá dos descansos durante la prueba.
Pulse la tecla ESPACIO o toque el botón de abajo para iniciar la parte de práctica.",0,keyboardresponseFM.png,,,,,,,,,,,,,,,,,,,,,,,,,,,,,,,,,,,,,,,,,,,,,,
,,,,,,f8d8455cf826f76fd9a75dee,66a626ef09d4e21e1a8894ec,6734e031a56e451743d067b2,2024-11-13_14h22.23.364,Tarea de género gramatical,2024.2.2,Win32,144.092219,,,,,,,,,,,,,,,,,,,,,,,80.601,82.724,l,1,1.465,,[],[],[],[],[],[],[],1.465,1,82.724,83.224,0,0,0,10,1,2011,MAS,CON,150,canal,,l,,,,,,,,,,,,,,,,,
,,,,,,f8d8455cf826f76fd9a75dee,66a626ef09d4e21e1a8894ec,6734e031a56e451743d067b2,2024-11-13_14h22.23.364,Tarea de género gramatical,2024.2.2,Win32,144.092219,,,,,,,,,,,,,,,,,,,,,,,83.225,85.87,,0,,,[],[],[],[],[],[],[],1.465,-1,85.872,86.369,0,1,1,14,1,2015,MAS,DIS,150,robot,la,l,,,,,,,,,,,,,,,,,
,,,,,,f8d8455cf826f76fd9a75dee,66a626ef09d4e21e1a8894ec,6734e031a56e451743d067b2,2024-11-13_14h22.23.364,Tarea de género gramatical,2024.2.2,Win32,144.092219,,,,,,,,,,,,,,,,,,,,,,,86.372,88.474,a,1,1.445,,[],[],[],[],[],[],[],1.445,1,88.475,88.974,0,2,2,5,1,2006,FEM,DIS,150,serie,el,a,,,,,,,,,,,,,,,,,
,,,,,,f8d8455cf826f76fd9a75dee,66a626ef09d4e21e1a8894ec,6734e031a56e451743d067b2,2024-11-13_14h22.23.364,Tarea de género gramatical,2024.2.2,Win32,144.092219,,,,,,,,,,,,,,,,,,,,,,,88.975,90.321,l,1,0.688,,[],[],[],[],[],[],[],0.688,1,90.322,90.821,0,3,3,13,1,2014,MAS,CON,150,siglo,,l,,,,,,,,,,,,,,,,,
,,,,,,f8d8455cf826f76fd9a75dee,66a626ef09d4e21e1a8894ec,6734e031a56e451743d067b2,2024-11-13_14h22.23.364,Tarea de género gramatical,2024.2.2,Win32,144.092219,,,,,,,,,,,,,,,,,,,,,,,90.823,92.21,a,1,0.729,,[],[],[],[],[],[],[],0.729,1,92.21,92.71,0,4,4,7,1,2008,FEM,CON,150,siesta,,a,,,,,,,,,,,,,,,,,
,,,,,,f8d8455cf826f76fd9a75dee,66a626ef09d4e21e1a8894ec,6734e031a56e451743d067b2,2024-11-13_14h22.23.364,Tarea de género gramatical,2024.2.2,Win32,144.092219,,,,,,,,,,,,,,,,,,,,,,,92.711,94.168,l,1,0.801,,[],[],[],[],[],[],[],0.801,1,94.169,94.668,0,5,5,11,1,2012,MAS,DIS,150,clima,la,l,,,,,,,,,,,,,,,,,
,,,,,,f8d8455cf826f76fd9a75dee,66a626ef09d4e21e1a8894ec,6734e031a56e451743d067b2,2024-11-13_14h22.23.364,Tarea de género gramatical,2024.2.2,Win32,144.092219,,,,,,,,,,,,,,,,,,,,,,,94.669,96.092,l,0,0.764,,[],[],[],[],[],[],[],0.764,0,96.093,96.593,0,6,6,3,1,2004,FEM,AGR,150,venta,la,a,,,,,,,,,,,,,,,,,
,,,,,,f8d8455cf826f76fd9a75dee,66a626ef09d4e21e1a8894ec,6734e031a56e451743d067b2,2024-11-13_14h22.23.364,Tarea de género gramatical,2024.2.2,Win32,144.092219,,,,,,,,,,,,,,,,,,,,,,,96.594,98.648,l,1,1.399,,[],[],[],[],[],[],[],1.399,1,98.649,99.147,0,7,7,12,1,2013,MAS,AGR,150,acero,el,l,,,,,,,,,,,,,,,,,
,,,,,,f8d8455cf826f76fd9a75dee,66a626ef09d4e21e1a8894ec,6734e031a56e451743d067b2,2024-11-13_14h22.23.364,Tarea de género gramatical,2024.2.2,Win32,144.092219,,,,,,,,,,,,,,,,,,,,,,,99.149,100.474,a,1,0.666,,[],[],[],[],[],[],[],0.666,1,100.475,100.974,0,8,8,4,1,2005,FEM,CON,150,placa,,a,,,,,,,,,,,,,,,,,
,,,,,,f8d8455cf826f76fd9a75dee,66a626ef09d4e21e1a8894ec,6734e031a56e451743d067b2,2024-11-13_14h22.23.364,Tarea de género gramatical,2024.2.2,Win32,144.092219,,,,,,,,,,,,,,,,,,,,,,,100.975,102.342,a,1,0.712,,[],[],[],[],[],[],[],0.712,1,102.342,102.843,0,9,9,6,1,2007,FEM,AGR,150,navaja,la,a,,,,,,,,,,,,,,,,,
,,,,,,f8d8455cf826f76fd9a75dee,66a626ef09d4e21e1a8894ec,6734e031a56e451743d067b2,2024-11-13_14h22.23.364,Tarea de género gramatical,2024.2.2,Win32,144.092219,,,,,,,,,,,,,,,,,,,,,,,102.844,104.064,a,1,0.565,,[],[],[],[],[],[],[],0.565,1,104.065,104.564,0,10,10,2,1,2003,FEM,DIS,150,daga,el,a,,,,,,,,,,,,,,,,,
,,,,,,f8d8455cf826f76fd9a75dee,66a626ef09d4e21e1a8894ec,6734e031a56e451743d067b2,2024-11-13_14h22.23.364,Tarea de género gramatical,2024.2.2,Win32,144.092219,,,,,,,,,,,,,,,,,,,,,,,104.565,105.85,l,1,0.625,,[],[],[],[],[],[],[],0.625,1,105.85,106.349,0,11,11,9,1,2010,MAS,AGR,150,vecino,el,l,,,,,,,,,,,,,,,,,
,,,,,,f8d8455cf826f76fd9a75dee,66a626ef09d4e21e1a8894ec,6734e031a56e451743d067b2,2024-11-13_14h22.23.364,Tarea de género gramatical,2024.2.2,Win32,144.092219,,,,,,,,,,,,,,,,,,,,,,,106.35,107.523,l,1,0.513,,[],[],[],[],[],[],[],0.513,1,107.523,108.023,0,12,12,8,1,2009,MAS,DIS,150,puerto,la,l,,,,,,,,,,,,,,,,,
,,,,,,f8d8455cf826f76fd9a75dee,66a626ef09d4e21e1a8894ec,6734e031a56e451743d067b2,2024-11-13_14h22.23.364,Tarea de género gramatical,2024.2.2,Win32,144.092219,,,,,,,,,,,,,,,,,,,,,,,108.023,109.099,a,1,0.417,,[],[],[],[],[],[],[],0.417,1,109.099,109.599,0,13,13,1,1,2002,FEM,CON,150,pala,,a,,,,,,,,,,,,,,,,,
,,,,,,f8d8455cf826f76fd9a75dee,66a626ef09d4e21e1a8894ec,6734e031a56e451743d067b2,2024-11-13_14h22.23.364,Tarea de género gramatical,2024.2.2,Win32,144.092219,,,,,,,,,,,,,,,,,,,,,,,109.6,110.78,a,1,0.522,,[],[],[],[],[],[],[],0.522,1,110.78,111.28,0,14,14,0,1,2001,FEM,AGR,150,nuca,la,a,,,,,,,,,,,,,,,,,
,,,,,,f8d8455cf826f76fd9a75dee,66a626ef09d4e21e1a8894ec,6734e031a56e451743d067b2,2024-11-13_14h22.23.364,Tarea de género gramatical,2024.2.2,Win32,144.092219,,,121.763,132.863,space,11.088,,0.214074074,-0.067407407,0,0,0,,,,,,,,,,,132.903,134.558,a,0,0.998,,[],[],[],[],[],[],[],0.998,0,134.559,135.058,,,,,,574,MAS,CON,150,clan,,l,135.058,135.06,0.214074074,-0.067407407,0,0,0,,0,0,0,123,1,,,,
,,,,,,f8d8455cf826f76fd9a75dee,66a626ef09d4e21e1a8894ec,6734e031a56e451743d067b2,2024-11-13_14h22.23.364,Tarea de género gramatical,2024.2.2,Win32,144.092219,,,,,,,,,,,,,,,,,,,,,,,135.061,136.363,a,1,0.646,,[],[],[],[],[],[],[],0.646,1,136.364,136.864,,,,,,753,FEM,AGR,150,maldad,la,a,136.864,136.864,0.214074074,-0.067407407,0,0,0,,0,1,1,302,1,,,,
,,,,,,f8d8455cf826f76fd9a75dee,66a626ef09d4e21e1a8894ec,6734e031a56e451743d067b2,2024-11-13_14h22.23.364,Tarea de género gramatical,2024.2.2,Win32,144.092219,,,,,,,,,,,,,,,,,,,,,,,136.865,137.996,a,1,0.473,,[],[],[],[],[],[],[],0.473,1,137.996,138.495,,,,,,608,FEM,DIS,150,chica,el,a,138.496,138.497,0.214074074,-0.067407407,0,0,0,,0,2,2,157,1,,,,
,,,,,,f8d8455cf826f76fd9a75dee,66a626ef09d4e21e1a8894ec,6734e031a56e451743d067b2,2024-11-13_14h22.23.364,Tarea de género gramatical,2024.2.2,Win32,144.092219,,,,,,,,,,,,,,,,,,,,,,,138.497,139.697,l,1,0.543,,[],[],[],[],[],[],[],0.543,1,139.697,140.197,,,,,,617,MAS,DIS,150,juego,la,l,140.197,140.197,0.214074074,-0.067407407,0,0,0,,0,3,3,166,1,,,,
,,,,,,f8d8455cf826f76fd9a75dee,66a626ef09d4e21e1a8894ec,6734e031a56e451743d067b2,2024-11-13_14h22.23.364,Tarea de género gramatical,2024.2.2,Win32,144.092219,,,,,,,,,,,,,,,,,,,,,,,140.198,141.35,a,1,0.498,,[],[],[],[],[],[],[],0.498,1,141.35,141.849,,,,,,537,FEM,AGR,150,risa,la,a,141.849,141.85,0.214074074,-0.067407407,0,0,0,,0,4,4,86,1,,,,
,,,,,,f8d8455cf826f76fd9a75dee,66a626ef09d4e21e1a8894ec,6734e031a56e451743d067b2,2024-11-13_14h22.23.364,Tarea de género gramatical,2024.2.2,Win32,144.092219,,,,,,,,,,,,,,,,,,,,,,,141.85,142.981,a,1,0.477,,[],[],[],[],[],[],[],0.477,1,142.981,143.482,,,,,,757,FEM,CON,150,suerte,,a,143.482,143.482,0.214074074,-0.067407407,0,0,0,,0,5,5,306,1,,,,
,,,,,,f8d8455cf826f76fd9a75dee,66a626ef09d4e21e1a8894ec,6734e031a56e451743d067b2,2024-11-13_14h22.23.364,Tarea de género gramatical,2024.2.2,Win32,144.092219,,,,,,,,,,,,,,,,,,,,,,,143.483,144.572,a,1,0.43,,[],[],[],[],[],[],[],0.43,1,144.572,145.072,,,,,,890,FEM,DIS,150,patada,el,a,145.073,145.073,0.214074074,-0.067407407,0,0,0,,0,6,6,439,1,,,,
,,,,,,f8d8455cf826f76fd9a75dee,66a626ef09d4e21e1a8894ec,6734e031a56e451743d067b2,2024-11-13_14h22.23.364,Tarea de género gramatical,2024.2.2,Win32,144.092219,,,,,,,,,,,,,,,,,,,,,,,145.074,146.21,a,1,0.481,,[],[],[],[],[],[],[],0.481,1,146.21,146.711,,,,,,649,FEM,CON,150,nariz,,a,146.711,146.711,0.214074074,-0.067407407,0,0,0,,0,7,7,198,1,,,,
,,,,,,f8d8455cf826f76fd9a75dee,66a626ef09d4e21e1a8894ec,6734e031a56e451743d067b2,2024-11-13_14h22.23.364,Tarea de género gramatical,2024.2.2,Win32,144.092219,,,,,,,,,,,,,,,,,,,,,,,146.712,148.031,l,1,0.663,,[],[],[],[],[],[],[],0.663,1,148.031,148.53,,,,,,588,MAS,AGR,150,luto,el,l,148.53,148.53,0.214074074,-0.067407407,0,0,0,,0,8,8,137,1,,,,
,,,,,,f8d8455cf826f76fd9a75dee,66a626ef09d4e21e1a8894ec,6734e031a56e451743d067b2,2024-11-13_14h22.23.364,Tarea de género gramatical,2024.2.2,Win32,144.092219,,,,,,,,,,,,,,,,,,,,,,,148.531,149.871,l,1,0.684,,[],[],[],[],[],[],[],0.684,1,149.871,150.37,,,,,,473,MAS,DIS,150,rato,la,l,150.37,150.37,0.214074074,-0.067407407,0,0,0,,0,9,9,22,1,,,,
,,,,,,f8d8455cf826f76fd9a75dee,66a626ef09d4e21e1a8894ec,6734e031a56e451743d067b2,2024-11-13_14h22.23.364,Tarea de género gramatical,2024.2.2,Win32,144.092219,,,,,,,,,,,,,,,,,,,,,,,150.371,151.523,l,1,0.493,,[],[],[],[],[],[],[],0.493,1,151.523,152.023,,,,,,515,MAS,DIS,150,rayo,la,l,152.023,152.023,0.214074074,-0.067407407,0,0,0,,0,10,10,64,1,,,,
,,,,,,f8d8455cf826f76fd9a75dee,66a626ef09d4e21e1a8894ec,6734e031a56e451743d067b2,2024-11-13_14h22.23.364,Tarea de género gramatical,2024.2.2,Win32,144.092219,,,,,,,,,,,,,,,,,,,,,,,152.024,153.35,a,1,0.67,,[],[],[],[],[],[],[],0.67,1,153.351,153.85,,,,,,621,FEM,AGR,150,mitad,la,a,153.851,153.852,0.214074074,-0.067407407,0,0,0,,0,11,11,170,1,,,,
,,,,,,f8d8455cf826f76fd9a75dee,66a626ef09d4e21e1a8894ec,6734e031a56e451743d067b2,2024-11-13_14h22.23.364,Tarea de género gramatical,2024.2.2,Win32,144.092219,,,,,,,,,,,,,,,,,,,,,,,153.854,155.002,l,1,0.486,,[],[],[],[],[],[],[],0.486,1,155.003,155.503,,,,,,832,MAS,CON,150,teatro,,l,155.503,155.503,0.214074074,-0.067407407,0,0,0,,0,12,12,381,1,,,,
,,,,,,f8d8455cf826f76fd9a75dee,66a626ef09d4e21e1a8894ec,6734e031a56e451743d067b2,2024-11-13_14h22.23.364,Tarea de género gramatical,2024.2.2,Win32,144.092219,,,,,,,,,,,,,,,,,,,,,,,155.504,156.78,a,1,0.619,,[],[],[],[],[],[],[],0.619,1,156.78,157.281,,,,,,591,FEM,AGR,150,cera,la,a,157.281,157.281,0.214074074,-0.067407407,0,0,0,,0,13,13,140,1,,,,
,,,,,,f8d8455cf826f76fd9a75dee,66a626ef09d4e21e1a8894ec,6734e031a56e451743d067b2,2024-11-13_14h22.23.364,Tarea de género gramatical,2024.2.2,Win32,144.092219,,,,,,,,,,,,,,,,,,,,,,,157.282,158.454,a,1,0.519,,[],[],[],[],[],[],[],0.519,1,158.454,158.954,,,,,,542,FEM,DIS,150,masa,el,a,158.954,158.954,0.214074074,-0.067407407,0,0,0,,0,14,14,91,1,,,,
,,,,,,f8d8455cf826f76fd9a75dee,66a626ef09d4e21e1a8894ec,6734e031a56e451743d067b2,2024-11-13_14h22.23.364,Tarea de género gramatical,2024.2.2,Win32,144.092219,,,,,,,,,,,,,,,,,,,,,,,158.955,160.142,l,1,0.533,,[],[],[],[],[],[],[],0.533,1,160.142,160.641,,,,,,796,MAS,CON,150,juicio,,l,160.643,160.644,0.214074074,-0.067407407,0,0,0,,0,15,15,345,1,,,,
,,,,,,f8d8455cf826f76fd9a75dee,66a626ef09d4e21e1a8894ec,6734e031a56e451743d067b2,2024-11-13_14h22.23.364,Tarea de género gramatical,2024.2.2,Win32,144.092219,,,,,,,,,,,,,,,,,,,,,,,160.644,161.704,a,1,0.399,,[],[],[],[],[],[],[],0.399,1,161.704,162.204,,,,,,655,FEM,CON,150,reina,,a,162.204,162.204,0.214074074,-0.067407407,0,0,0,,0,16,16,204,1,,,,
,,,,,,f8d8455cf826f76fd9a75dee,66a626ef09d4e21e1a8894ec,6734e031a56e451743d067b2,2024-11-13_14h22.23.364,Tarea de género gramatical,2024.2.2,Win32,144.092219,,,,,,,,,,,,,,,,,,,,,,,162.205,163.378,l,1,0.514,,[],[],[],[],[],[],[],0.514,1,163.378,163.877,,,,,,820,MAS,CON,150,seguro,,l,163.877,163.877,0.214074074,-0.067407407,0,0,0,,0,17,17,369,1,,,,
,,,,,,f8d8455cf826f76fd9a75dee,66a626ef09d4e21e1a8894ec,6734e031a56e451743d067b2,2024-11-13_14h22.23.364,Tarea de género gramatical,2024.2.2,Win32,144.092219,,,,,,,,,,,,,,,,,,,,,,,163.879,164.968,a,1,0.434,,[],[],[],[],[],[],[],0.434,1,164.968,165.468,,,,,,867,FEM,AGR,150,cabaña,la,a,165.468,165.468,0.214074074,-0.067407407,0,0,0,,0,18,18,416,1,,,,
,,,,,,f8d8455cf826f76fd9a75dee,66a626ef09d4e21e1a8894ec,6734e031a56e451743d067b2,2024-11-13_14h22.23.364,Tarea de género gramatical,2024.2.2,Win32,144.092219,,,,,,,,,,,,,,,,,,,,,,,165.469,166.739,a,1,0.613,,[],[],[],[],[],[],[],0.613,1,166.739,167.239,,,,,,855,FEM,AGR,150,parada,la,a,167.239,167.239,0.214074074,-0.067407407,0,0,0,,0,19,19,404,1,,,,
,,,,,,f8d8455cf826f76fd9a75dee,66a626ef09d4e21e1a8894ec,6734e031a56e451743d067b2,2024-11-13_14h22.23.364,Tarea de género gramatical,2024.2.2,Win32,144.092219,,,,,,,,,,,,,,,,,,,,,,,167.241,168.468,l,1,0.57,,[],[],[],[],[],[],[],0.57,1,168.468,168.968,,,,,,630,MAS,AGR,150,fuego,el,l,168.969,168.969,0.214074074,-0.067407407,0,0,0,,0,20,20,179,1,,,,
,,,,,,f8d8455cf826f76fd9a75dee,66a626ef09d4e21e1a8894ec,6734e031a56e451743d067b2,2024-11-13_14h22.23.364,Tarea de género gramatical,2024.2.2,Win32,144.092219,,,,,,,,,,,,,,,,,,,,,,,168.97,170.058,a,1,0.431,,[],[],[],[],[],[],[],0.431,1,170.059,170.559,,,,,,801,FEM,AGR,150,espada,la,a,170.559,170.559,0.214074074,-0.067407407,0,0,0,,0,21,21,350,1,,,,
,,,,,,f8d8455cf826f76fd9a75dee,66a626ef09d4e21e1a8894ec,6734e031a56e451743d067b2,2024-11-13_14h22.23.364,Tarea de género gramatical,2024.2.2,Win32,144.092219,,,,,,,,,,,,,,,,,,,,,,,170.56,171.732,a,1,0.515,,[],[],[],[],[],[],[],0.515,1,171.732,172.232,,,,,,746,FEM,DIS,150,feria,el,a,172.233,172.233,0.214074074,-0.067407407,0,0,0,,0,22,22,295,1,,,,
,,,,,,f8d8455cf826f76fd9a75dee,66a626ef09d4e21e1a8894ec,6734e031a56e451743d067b2,2024-11-13_14h22.23.364,Tarea de género gramatical,2024.2.2,Win32,144.092219,,,,,,,,,,,,,,,,,,,,,,,172.234,173.322,l,1,0.432,,[],[],[],[],[],[],[],0.432,1,173.322,173.823,,,,,,880,MAS,CON,150,título,,l,173.823,173.823,0.214074074,-0.067407407,0,0,0,,0,23,23,429,1,,,,
,,,,,,f8d8455cf826f76fd9a75dee,66a626ef09d4e21e1a8894ec,6734e031a56e451743d067b2,2024-11-13_14h22.23.364,Tarea de género gramatical,2024.2.2,Win32,144.092219,,,,,,,,,,,,,,,,,,,,,,,173.823,174.912,a,1,0.432,,[],[],[],[],[],[],[],0.432,1,174.912,175.413,,,,,,555,FEM,AGR,150,jefa,la,a,175.413,175.413,0.214074074,-0.067407407,0,0,0,,0,24,24,104,1,,,,
,,,,,,f8d8455cf826f76fd9a75dee,66a626ef09d4e21e1a8894ec,6734e031a56e451743d067b2,2024-11-13_14h22.23.364,Tarea de género gramatical,2024.2.2,Win32,144.092219,,,,,,,,,,,,,,,,,,,,,,,175.414,176.593,a,1,0.521,,[],[],[],[],[],[],[],0.521,1,176.593,177.094,,,,,,889,FEM,CON,150,toalla,,a,177.094,177.094,0.214074074,-0.067407407,0,0,0,,0,25,25,438,1,,,,
,,,,,,f8d8455cf826f76fd9a75dee,66a626ef09d4e21e1a8894ec,6734e031a56e451743d067b2,2024-11-13_14h22.23.364,Tarea de género gramatical,2024.2.2,Win32,144.092219,,,,,,,,,,,,,,,,,,,,,,,177.095,178.385,l,1,0.635,,[],[],[],[],[],[],[],0.635,1,178.385,178.885,,,,,,598,MAS,CON,150,surf,,l,178.885,178.885,0.214074074,-0.067407407,0,0,0,,0,26,26,147,1,,,,
,,,,,,f8d8455cf826f76fd9a75dee,66a626ef09d4e21e1a8894ec,6734e031a56e451743d067b2,2024-11-13_14h22.23.364,Tarea de género gramatical,2024.2.2,Win32,144.092219,,,,,,,,,,,,,,,,,,,,,,,178.886,180.107,l,1,0.564,,[],[],[],[],[],[],[],0.564,1,180.107,180.607,,,,,,646,MAS,CON,150,barco,,l,180.607,180.607,0.214074074,-0.067407407,0,0,0,,0,27,27,195,1,,,,
,,,,,,f8d8455cf826f76fd9a75dee,66a626ef09d4e21e1a8894ec,6734e031a56e451743d067b2,2024-11-13_14h22.23.364,Tarea de género gramatical,2024.2.2,Win32,144.092219,,,,,,,,,,,,,,,,,,,,,,,180.608,181.6,a,1,0.336,,[],[],[],[],[],[],[],0.336,1,181.601,182.101,,,,,,482,FEM,DIS,150,caja,el,a,182.101,182.101,0.214074074,-0.067407407,0,0,0,,0,28,28,31,1,,,,
,,,,,,f8d8455cf826f76fd9a75dee,66a626ef09d4e21e1a8894ec,6734e031a56e451743d067b2,2024-11-13_14h22.23.364,Tarea de género gramatical,2024.2.2,Win32,144.092219,,,,,,,,,,,,,,,,,,,,,,,182.102,183.302,l,1,0.547,,[],[],[],[],[],[],[],0.547,1,183.302,183.801,,,,,,828,MAS,AGR,150,pastel,el,l,183.802,183.803,0.214074074,-0.067407407,0,0,0,,0,29,29,377,1,,,,
,,,,,,f8d8455cf826f76fd9a75dee,66a626ef09d4e21e1a8894ec,6734e031a56e451743d067b2,2024-11-13_14h22.23.364,Tarea de género gramatical,2024.2.2,Win32,144.092219,,,,,,,,,,,,,,,,,,,,,,,183.803,185.002,l,1,0.541,,[],[],[],[],[],[],[],0.541,1,185.003,185.503,,,,,,660,MAS,AGR,150,baile,el,l,185.504,185.504,0.214074074,-0.067407407,0,0,0,,0,30,30,209,1,,,,
,,,,,,f8d8455cf826f76fd9a75dee,66a626ef09d4e21e1a8894ec,6734e031a56e451743d067b2,2024-11-13_14h22.23.364,Tarea de género gramatical,2024.2.2,Win32,144.092219,,,,,,,,,,,,,,,,,,,,,,,185.506,186.76,l,1,0.598,,[],[],[],[],[],[],[],0.598,1,186.761,187.26,,,,,,690,MAS,AGR,150,ruido,el,l,187.26,187.26,0.214074074,-0.067407407,0,0,0,,0,31,31,239,1,,,,
,,,,,,f8d8455cf826f76fd9a75dee,66a626ef09d4e21e1a8894ec,6734e031a56e451743d067b2,2024-11-13_14h22.23.364,Tarea de género gramatical,2024.2.2,Win32,144.092219,,,,,,,,,,,,,,,,,,,,,,,187.261,188.329,a,1,0.411,,[],[],[],[],[],[],[],0.411,1,188.329,188.83,,,,,,693,FEM,AGR,150,salsa,la,a,188.83,188.83,0.214074074,-0.067407407,0,0,0,,0,32,32,242,1,,,,
,,,,,,f8d8455cf826f76fd9a75dee,66a626ef09d4e21e1a8894ec,6734e031a56e451743d067b2,2024-11-13_14h22.23.364,Tarea de género gramatical,2024.2.2,Win32,144.092219,,,,,,,,,,,,,,,,,,,,,,,188.831,189.92,a,1,0.434,,[],[],[],[],[],[],[],0.434,1,189.921,190.42,,,,,,639,FEM,AGR,150,pista,la,a,190.421,190.422,0.214074074,-0.067407407,0,0,0,,0,33,33,188,1,,,,
,,,,,,f8d8455cf826f76fd9a75dee,66a626ef09d4e21e1a8894ec,6734e031a56e451743d067b2,2024-11-13_14h22.23.364,Tarea de género gramatical,2024.2.2,Win32,144.092219,,,,,,,,,,,,,,,,,,,,,,,190.423,191.614,l,1,0.539,,[],[],[],[],[],[],[],0.539,1,191.614,192.114,,,,,,586,MAS,CON,150,vago,,l,192.114,192.114,0.214074074,-0.067407407,0,0,0,,0,34,34,135,1,,,,
,,,,,,f8d8455cf826f76fd9a75dee,66a626ef09d4e21e1a8894ec,6734e031a56e451743d067b2,2024-11-13_14h22.23.364,Tarea de género gramatical,2024.2.2,Win32,144.092219,,,,,,,,,,,,,,,,,,,,,,,192.115,193.316,l,1,0.543,,[],[],[],[],[],[],[],0.543,1,193.316,193.815,,,,,,888,MAS,AGR,150,tanque,el,l,193.815,193.815,0.214074074,-0.067407407,0,0,0,,0,35,35,437,1,,,,
,,,,,,f8d8455cf826f76fd9a75dee,66a626ef09d4e21e1a8894ec,6734e031a56e451743d067b2,2024-11-13_14h22.23.364,Tarea de género gramatical,2024.2.2,Win32,144.092219,,,,,,,,,,,,,,,,,,,,,,,193.817,194.864,l,1,0.39,,[],[],[],[],[],[],[],0.39,1,194.864,195.364,,,,,,658,MAS,CON,150,suelo,,l,195.364,195.364,0.214074074,-0.067407407,0,0,0,,0,36,36,207,1,,,,
,,,,,,f8d8455cf826f76fd9a75dee,66a626ef09d4e21e1a8894ec,6734e031a56e451743d067b2,2024-11-13_14h22.23.364,Tarea de género gramatical,2024.2.2,Win32,144.092219,,,,,,,,,,,,,,,,,,,,,,,195.365,196.447,a,1,0.427,,[],[],[],[],[],[],[],0.427,1,196.448,196.948,,,,,,627,FEM,AGR,150,broma,la,a,196.948,196.948,0.214074074,-0.067407407,0,0,0,,0,37,37,176,1,,,,
,,,,,,f8d8455cf826f76fd9a75dee,66a626ef09d4e21e1a8894ec,6734e031a56e451743d067b2,2024-11-13_14h22.23.364,Tarea de género gramatical,2024.2.2,Win32,144.092219,,,,,,,,,,,,,,,,,,,,,,,196.949,198.017,a,1,0.412,,[],[],[],[],[],[],[],0.412,1,198.018,198.517,,,,,,831,FEM,AGR,150,bebida,la,a,198.518,198.519,0.214074074,-0.067407407,0,0,0,,0,38,38,380,1,,,,
,,,,,,f8d8455cf826f76fd9a75dee,66a626ef09d4e21e1a8894ec,6734e031a56e451743d067b2,2024-11-13_14h22.23.364,Tarea de género gramatical,2024.2.2,Win32,144.092219,,,,,,,,,,,,,,,,,,,,,,,198.52,199.622,l,1,0.441,,[],[],[],[],[],[],[],0.441,1,199.622,200.121,,,,,,870,MAS,AGR,150,helado,el,l,200.121,200.121,0.214074074,-0.067407407,0,0,0,,0,39,39,419,1,,,,
,,,,,,f8d8455cf826f76fd9a75dee,66a626ef09d4e21e1a8894ec,6734e031a56e451743d067b2,2024-11-13_14h22.23.364,Tarea de género gramatical,2024.2.2,Win32,144.092219,,,,,,,,,,,,,,,,,,,,,,,200.122,201.24,a,0,0.462,,[],[],[],[],[],[],[],0.462,0,201.24,201.739,,,,,,720,MAS,AGR,150,queso,el,l,201.74,201.74,0.214074074,-0.067407407,0,0,0,,0,40,40,269,1,,,,
,,,,,,f8d8455cf826f76fd9a75dee,66a626ef09d4e21e1a8894ec,6734e031a56e451743d067b2,2024-11-13_14h22.23.364,Tarea de género gramatical,2024.2.2,Win32,144.092219,,,,,,,,,,,,,,,,,,,,,,,201.74,203.156,l,1,0.756,,[],[],[],[],[],[],[],0.756,1,203.157,203.656,,,,,,490,MAS,CON,150,dios,,l,203.656,203.656,0.214074074,-0.067407407,0,0,0,,0,41,41,39,1,,,,
,,,,,,f8d8455cf826f76fd9a75dee,66a626ef09d4e21e1a8894ec,6734e031a56e451743d067b2,2024-11-13_14h22.23.364,Tarea de género gramatical,2024.2.2,Win32,144.092219,,,,,,,,,,,,,,,,,,,,,,,203.657,205.191,l,1,0.879,,[],[],[],[],[],[],[],0.879,1,205.191,205.69,,,,,,851,MAS,DIS,150,abrigo,la,l,205.691,205.693,0.214074074,-0.067407407,0,0,0,,0,42,42,400,1,,,,
,,,,,,f8d8455cf826f76fd9a75dee,66a626ef09d4e21e1a8894ec,6734e031a56e451743d067b2,2024-11-13_14h22.23.364,Tarea de género gramatical,2024.2.2,Win32,144.092219,,,,,,,,,,,,,,,,,,,,,,,205.693,206.871,l,1,0.524,,[],[],[],[],[],[],[],0.524,1,206.871,207.372,,,,,,569,MAS,DIS,150,mito,la,l,207.372,207.372,0.214074074,-0.067407407,0,0,0,,0,43,43,118,1,,,,
,,,,,,f8d8455cf826f76fd9a75dee,66a626ef09d4e21e1a8894ec,6734e031a56e451743d067b2,2024-11-13_14h22.23.364,Tarea de género gramatical,2024.2.2,Win32,144.092219,,,,,,,,,,,,,,,,,,,,,,,207.373,208.496,a,1,0.467,,[],[],[],[],[],[],[],0.467,1,208.496,208.996,,,,,,765,FEM,AGR,150,manera,la,a,208.996,208.996,0.214074074,-0.067407407,0,0,0,,0,44,44,314,1,,,,
,,,,,,f8d8455cf826f76fd9a75dee,66a626ef09d4e21e1a8894ec,6734e031a56e451743d067b2,2024-11-13_14h22.23.364,Tarea de género gramatical,2024.2.2,Win32,144.092219,,,,,,,,,,,,,,,,,,,,,,,208.997,210.072,l,1,0.418,,[],[],[],[],[],[],[],0.418,1,210.072,210.573,,,,,,455,MAS,DIS,150,tipo,la,l,210.573,210.573,0.214074074,-0.067407407,0,0,0,,0,45,45,4,1,,,,
,,,,,,f8d8455cf826f76fd9a75dee,66a626ef09d4e21e1a8894ec,6734e031a56e451743d067b2,2024-11-13_14h22.23.364,Tarea de género gramatical,2024.2.2,Win32,144.092219,,,,,,,,,,,,,,,,,,,,,,,210.573,211.753,l,1,0.522,,[],[],[],[],[],[],[],0.522,1,211.753,212.254,,,,,,882,MAS,AGR,150,océano,el,l,212.254,212.254,0.214074074,-0.067407407,0,0,0,,0,46,46,431,1,,,,
,,,,,,f8d8455cf826f76fd9a75dee,66a626ef09d4e21e1a8894ec,6734e031a56e451743d067b2,2024-11-13_14h22.23.364,Tarea de género gramatical,2024.2.2,Win32,144.092219,,,,,,,,,,,,,,,,,,,,,,,212.255,213.337,a,1,0.426,,[],[],[],[],[],[],[],0.426,1,213.337,213.836,,,,,,579,FEM,AGR,150,rana,la,a,213.837,213.838,0.214074074,-0.067407407,0,0,0,,0,47,47,128,1,,,,
,,,,,,f8d8455cf826f76fd9a75dee,66a626ef09d4e21e1a8894ec,6734e031a56e451743d067b2,2024-11-13_14h22.23.364,Tarea de género gramatical,2024.2.2,Win32,144.092219,,,,,,,,,,,,,,,,,,,,,,,213.839,215.024,l,1,0.53,,[],[],[],[],[],[],[],0.53,1,215.024,215.524,,,,,,550,MAS,CON,150,nido,,l,215.524,215.524,0.214074074,-0.067407407,0,0,0,,0,48,48,99,1,,,,
,,,,,,f8d8455cf826f76fd9a75dee,66a626ef09d4e21e1a8894ec,6734e031a56e451743d067b2,2024-11-13_14h22.23.364,Tarea de género gramatical,2024.2.2,Win32,144.092219,,,,,,,,,,,,,,,,,,,,,,,215.525,216.635,a,1,0.452,,[],[],[],[],[],[],[],0.452,1,216.635,217.135,,,,,,865,FEM,CON,150,cabina,,a,217.135,217.135,0.214074074,-0.067407407,0,0,0,,0,49,49,414,1,,,,
,,,,,,f8d8455cf826f76fd9a75dee,66a626ef09d4e21e1a8894ec,6734e031a56e451743d067b2,2024-11-13_14h22.23.364,Tarea de género gramatical,2024.2.2,Win32,144.092219,,,,,,,,,,,,,,,,,,,,,,,217.136,218.281,l,1,0.486,,[],[],[],[],[],[],[],0.486,1,218.281,218.781,,,,,,528,MAS,AGR,150,oído,el,l,218.781,218.782,0.214074074,-0.067407407,0,0,0,,0,50,50,77,1,,,,
,,,,,,f8d8455cf826f76fd9a75dee,66a626ef09d4e21e1a8894ec,6734e031a56e451743d067b2,2024-11-13_14h22.23.364,Tarea de género gramatical,2024.2.2,Win32,144.092219,,,,,,,,,,,,,,,,,,,,,,,218.784,219.913,a,1,0.473,,[],[],[],[],[],[],[],0.473,1,219.914,220.413,,,,,,709,FEM,CON,150,prima,,a,220.415,220.415,0.214074074,-0.067407407,0,0,0,,0,51,51,258,1,,,,
,,,,,,f8d8455cf826f76fd9a75dee,66a626ef09d4e21e1a8894ec,6734e031a56e451743d067b2,2024-11-13_14h22.23.364,Tarea de género gramatical,2024.2.2,Win32,144.092219,,,,,,,,,,,,,,,,,,,,,,,220.416,221.586,a,1,0.508,,[],[],[],[],[],[],[],0.508,1,221.587,222.087,,,,,,679,FEM,CON,150,celda,,a,222.087,222.087,0.214074074,-0.067407407,0,0,0,,0,52,52,228,1,,,,
,,,,,,f8d8455cf826f76fd9a75dee,66a626ef09d4e21e1a8894ec,6734e031a56e451743d067b2,2024-11-13_14h22.23.364,Tarea de género gramatical,2024.2.2,Win32,144.092219,,,,,,,,,,,,,,,,,,,,,,,222.088,223.149,a,1,0.408,,[],[],[],[],[],[],[],0.408,1,223.15,223.649,,,,,,879,FEM,AGR,150,fianza,la,a,223.649,223.649,0.214074074,-0.067407407,0,0,0,,0,53,53,428,1,,,,
,,,,,,f8d8455cf826f76fd9a75dee,66a626ef09d4e21e1a8894ec,6734e031a56e451743d067b2,2024-11-13_14h22.23.364,Tarea de género gramatical,2024.2.2,Win32,144.092219,,,,,,,,,,,,,,,,,,,,,,,223.65,224.74,a,1,0.431,,[],[],[],[],[],[],[],0.431,1,224.74,225.239,,,,,,626,FEM,DIS,150,línea,el,a,225.239,225.239,0.214074074,-0.067407407,0,0,0,,0,54,54,175,1,,,,
,,,,,,f8d8455cf826f76fd9a75dee,66a626ef09d4e21e1a8894ec,6734e031a56e451743d067b2,2024-11-13_14h22.23.364,Tarea de género gramatical,2024.2.2,Win32,144.092219,,,,,,,,,,,,,,,,,,,,,,,225.24,226.357,l,1,0.462,,[],[],[],[],[],[],[],0.462,1,226.357,226.858,,,,,,568,MAS,CON,150,baúl,,l,226.858,226.858,0.214074074,-0.067407407,0,0,0,,0,55,55,117,1,,,,
,,,,,,f8d8455cf826f76fd9a75dee,66a626ef09d4e21e1a8894ec,6734e031a56e451743d067b2,2024-11-13_14h22.23.364,Tarea de género gramatical,2024.2.2,Win32,144.092219,,,,,,,,,,,,,,,,,,,,,,,226.858,227.934,a,1,0.421,,[],[],[],[],[],[],[],0.421,1,227.935,228.434,,,,,,566,FEM,DIS,150,nube,el,a,228.434,228.435,0.214074074,-0.067407407,0,0,0,,0,56,56,115,1,,,,
,,,,,,f8d8455cf826f76fd9a75dee,66a626ef09d4e21e1a8894ec,6734e031a56e451743d067b2,2024-11-13_14h22.23.364,Tarea de género gramatical,2024.2.2,Win32,144.092219,,,,,,,,,,,,,,,,,,,,,,,228.435,229.587,a,1,0.495,,[],[],[],[],[],[],[],0.495,1,229.587,230.087,,,,,,829,FEM,CON,150,granja,,a,230.087,230.087,0.214074074,-0.067407407,0,0,0,,0,57,57,378,1,,,,
,,,,,,f8d8455cf826f76fd9a75dee,66a626ef09d4e21e1a8894ec,6734e031a56e451743d067b2,2024-11-13_14h22.23.364,Tarea de género gramatical,2024.2.2,Win32,144.092219,,,,,,,,,,,,,,,,,,,,,,,230.088,231.434,a,1,0.687,,[],[],[],[],[],[],[],0.687,1,231.435,231.934,,,,,,812,FEM,DIS,150,fuente,el,a,231.934,231.934,0.214074074,-0.067407407,0,0,0,,0,58,58,361,1,,,,
,,,,,,f8d8455cf826f76fd9a75dee,66a626ef09d4e21e1a8894ec,6734e031a56e451743d067b2,2024-11-13_14h22.23.364,Tarea de género gramatical,2024.2.2,Win32,144.092219,,,,,,,,,,,,,,,,,,,,,,,231.935,233.316,l,1,0.722,,[],[],[],[],[],[],[],0.722,1,233.316,233.816,,,,,,702,MAS,AGR,150,viejo,el,l,233.816,233.816,0.214074074,-0.067407407,0,0,0,,0,59,59,251,1,,,,
,,,,,,f8d8455cf826f76fd9a75dee,66a626ef09d4e21e1a8894ec,6734e031a56e451743d067b2,2024-11-13_14h22.23.364,Tarea de género gramatical,2024.2.2,Win32,144.092219,,,,,,,,,,,,,,,,,,,,,,,233.816,235.086,l,1,0.615,,[],[],[],[],[],[],[],0.615,1,235.087,235.587,,,,,,478,MAS,CON,150,club,,l,235.588,235.589,0.214074074,-0.067407407,0,0,0,,0,60,60,27,1,,,,
,,,,,,f8d8455cf826f76fd9a75dee,66a626ef09d4e21e1a8894ec,6734e031a56e451743d067b2,2024-11-13_14h22.23.364,Tarea de género gramatical,2024.2.2,Win32,144.092219,,,,,,,,,,,,,,,,,,,,,,,235.59,236.636,l,1,0.388,,[],[],[],[],[],[],[],0.388,1,236.636,237.136,,,,,,634,MAS,CON,150,cielo,,l,237.136,237.136,0.214074074,-0.067407407,0,0,0,,0,61,61,183,1,,,,
,,,,,,f8d8455cf826f76fd9a75dee,66a626ef09d4e21e1a8894ec,6734e031a56e451743d067b2,2024-11-13_14h22.23.364,Tarea de género gramatical,2024.2.2,Win32,144.092219,,,,,,,,,,,,,,,,,,,,,,,237.137,238.274,l,1,0.481,,[],[],[],[],[],[],[],0.481,1,238.275,238.774,,,,,,551,MAS,DIS,150,giro,la,l,238.774,238.774,0.214074074,-0.067407407,0,0,0,,0,62,62,100,1,,,,
,,,,,,f8d8455cf826f76fd9a75dee,66a626ef09d4e21e1a8894ec,6734e031a56e451743d067b2,2024-11-13_14h22.23.364,Tarea de género gramatical,2024.2.2,Win32,144.092219,,,,,,,,,,,,,,,,,,,,,,,238.776,239.871,l,1,0.44,,[],[],[],[],[],[],[],0.44,1,239.872,240.372,,,,,,858,MAS,AGR,150,cheque,el,l,240.372,240.372,0.214074074,-0.067407407,0,0,0,,0,63,63,407,1,,,,
,,,,,,f8d8455cf826f76fd9a75dee,66a626ef09d4e21e1a8894ec,6734e031a56e451743d067b2,2024-11-13_14h22.23.364,Tarea de género gramatical,2024.2.2,Win32,144.092219,,,,,,,,,,,,,,,,,,,,,,,240.373,241.427,l,1,0.397,,[],[],[],[],[],[],[],0.397,1,241.427,241.927,,,,,,592,MAS,CON,150,lodo,,l,241.927,241.927,0.214074074,-0.067407407,0,0,0,,0,64,64,141,1,,,,
,,,,,,f8d8455cf826f76fd9a75dee,66a626ef09d4e21e1a8894ec,6734e031a56e451743d067b2,2024-11-13_14h22.23.364,Tarea de género gramatical,2024.2.2,Win32,144.092219,,,,,,,,,,,,,,,,,,,,,,,241.928,242.934,l,1,0.351,,[],[],[],[],[],[],[],0.351,1,242.935,243.434,,,,,,864,MAS,AGR,150,sótano,el,l,243.435,243.435,0.214074074,-0.067407407,0,0,0,,0,65,65,413,1,,,,
,,,,,,f8d8455cf826f76fd9a75dee,66a626ef09d4e21e1a8894ec,6734e031a56e451743d067b2,2024-11-13_14h22.23.364,Tarea de género gramatical,2024.2.2,Win32,144.092219,,,,,,,,,,,,,,,,,,,,,,,243.436,244.531,l,1,0.439,,[],[],[],[],[],[],[],0.439,1,244.532,245.032,,,,,,580,MAS,CON,150,yate,,l,245.032,245.032,0.214074074,-0.067407407,0,0,0,,0,66,66,129,1,,,,
,,,,,,f8d8455cf826f76fd9a75dee,66a626ef09d4e21e1a8894ec,6734e031a56e451743d067b2,2024-11-13_14h22.23.364,Tarea de género gramatical,2024.2.2,Win32,144.092219,,,,,,,,,,,,,,,,,,,,,,,245.033,246.032,l,1,0.343,,[],[],[],[],[],[],[],0.343,1,246.032,246.531,,,,,,454,MAS,CON,150,hijo,,l,246.531,246.531,0.214074074,-0.067407407,0,0,0,,0,67,67,3,1,,,,
,,,,,,f8d8455cf826f76fd9a75dee,66a626ef09d4e21e1a8894ec,6734e031a56e451743d067b2,2024-11-13_14h22.23.364,Tarea de género gramatical,2024.2.2,Win32,144.092219,,,,,,,,,,,,,,,,,,,,,,,246.532,247.587,l,1,0.396,,[],[],[],[],[],[],[],0.396,1,247.587,248.087,,,,,,786,MAS,AGR,150,crimen,el,l,248.087,248.087,0.214074074,-0.067407407,0,0,0,,0,68,68,335,1,,,,
,,,,,,f8d8455cf826f76fd9a75dee,66a626ef09d4e21e1a8894ec,6734e031a56e451743d067b2,2024-11-13_14h22.23.364,Tarea de género gramatical,2024.2.2,Win32,144.092219,,,,,,,,,,,,,,,,,,,,,,,248.088,249.476,l,1,0.729,,[],[],[],[],[],[],[],0.729,1,249.477,249.976,,,,,,767,MAS,DIS,150,número,la,l,249.976,249.977,0.214074074,-0.067407407,0,0,0,,0,69,69,316,1,,,,
,,,,,,f8d8455cf826f76fd9a75dee,66a626ef09d4e21e1a8894ec,6734e031a56e451743d067b2,2024-11-13_14h22.23.364,Tarea de género gramatical,2024.2.2,Win32,144.092219,,,,,,,,,,,,,,,,,,,,,,,249.977,251.087,l,1,0.455,,[],[],[],[],[],[],[],0.455,1,251.087,251.587,,,,,,538,MAS,CON,150,pavo,,l,251.587,251.587,0.214074074,-0.067407407,0,0,0,,0,70,70,87,1,,,,
,,,,,,f8d8455cf826f76fd9a75dee,66a626ef09d4e21e1a8894ec,6734e031a56e451743d067b2,2024-11-13_14h22.23.364,Tarea de género gramatical,2024.2.2,Win32,144.092219,,,,,,,,,,,,,,,,,,,,,,,251.588,252.698,a,1,0.453,,[],[],[],[],[],[],[],0.453,1,252.699,253.198,,,,,,752,FEM,DIS,150,cabeza,el,a,253.199,253.199,0.214074074,-0.067407407,0,0,0,,0,71,71,301,1,,,,
,,,,,,f8d8455cf826f76fd9a75dee,66a626ef09d4e21e1a8894ec,6734e031a56e451743d067b2,2024-11-13_14h22.23.364,Tarea de género gramatical,2024.2.2,Win32,144.092219,,,,,,,,,,,,,,,,,,,,,,,253.201,254.392,l,1,0.528,,[],[],[],[],[],[],[],0.528,1,254.393,254.892,,,,,,479,MAS,DIS,150,frío,la,l,254.892,254.892,0.214074074,-0.067407407,0,0,0,,0,72,72,28,1,,,,
,,,,,,f8d8455cf826f76fd9a75dee,66a626ef09d4e21e1a8894ec,6734e031a56e451743d067b2,2024-11-13_14h22.23.364,Tarea de género gramatical,2024.2.2,Win32,144.092219,,,,,,,,,,,,,,,,,,,,,,,254.893,256.33,l,1,0.779,,[],[],[],[],[],[],[],0.779,1,256.33,256.831,,,,,,462,MAS,AGR,150,plan,el,l,256.831,256.831,0.214074074,-0.067407407,0,0,0,,0,73,73,11,1,,,,
,,,,,,f8d8455cf826f76fd9a75dee,66a626ef09d4e21e1a8894ec,6734e031a56e451743d067b2,2024-11-13_14h22.23.364,Tarea de género gramatical,2024.2.2,Win32,144.092219,,,,,,,,,,,,,,,,,,,,,,,256.832,258.032,l,1,0.544,,[],[],[],[],[],[],[],0.544,1,258.032,258.531,,,,,,526,MAS,CON,150,lujo,,l,258.532,258.533,0.214074074,-0.067407407,0,0,0,,0,74,74,75,1,,,,
,,,,,,f8d8455cf826f76fd9a75dee,66a626ef09d4e21e1a8894ec,6734e031a56e451743d067b2,2024-11-13_14h22.23.364,Tarea de género gramatical,2024.2.2,Win32,144.092219,,,,,,,,,,,,,,,,,,,,,,,258.534,259.642,l,1,0.45,,[],[],[],[],[],[],[],0.45,1,259.642,260.143,,,,,,694,MAS,CON,150,hielo,,l,260.143,260.143,0.214074074,-0.067407407,0,0,0,,0,75,75,243,1,,,,
,,,,,,f8d8455cf826f76fd9a75dee,66a626ef09d4e21e1a8894ec,6734e031a56e451743d067b2,2024-11-13_14h22.23.364,Tarea de género gramatical,2024.2.2,Win32,144.092219,,,,,,,,,,,,,,,,,,,,,,,260.144,261.22,a,1,0.416,,[],[],[],[],[],[],[],0.416,1,261.22,261.719,,,,,,691,FEM,CON,150,pasta,,a,261.719,261.719,0.214074074,-0.067407407,0,0,0,,0,76,76,240,1,,,,
,,,,,,f8d8455cf826f76fd9a75dee,66a626ef09d4e21e1a8894ec,6734e031a56e451743d067b2,2024-11-13_14h22.23.364,Tarea de género gramatical,2024.2.2,Win32,144.092219,,,,,,,,,,,,,,,,,,,,,,,261.72,262.983,l,1,0.608,,[],[],[],[],[],[],[],0.608,1,262.983,263.483,,,,,,677,MAS,DIS,150,vuelo,la,l,263.483,263.483,0.214074074,-0.067407407,0,0,0,,0,77,77,226,1,,,,
,,,,,,f8d8455cf826f76fd9a75dee,66a626ef09d4e21e1a8894ec,6734e031a56e451743d067b2,2024-11-13_14h22.23.364,Tarea de género gramatical,2024.2.2,Win32,144.092219,,,,,,,,,,,,,,,,,,,,,,,263.484,264.567,l,1,0.427,,[],[],[],[],[],[],[],0.427,1,264.567,265.067,,,,,,886,MAS,CON,150,objeto,,l,265.067,265.067,0.214074074,-0.067407407,0,0,0,,0,78,78,435,1,,,,
,,,,,,f8d8455cf826f76fd9a75dee,66a626ef09d4e21e1a8894ec,6734e031a56e451743d067b2,2024-11-13_14h22.23.364,Tarea de género gramatical,2024.2.2,Win32,144.092219,,,,,,,,,,,,,,,,,,,,,,,265.069,266.281,l,1,0.556,,[],[],[],[],[],[],[],0.556,1,266.281,266.782,,,,,,850,MAS,CON,150,barrio,,l,266.782,266.782,0.214074074,-0.067407407,0,0,0,,0,79,79,399,1,,,,
,,,,,,f8d8455cf826f76fd9a75dee,66a626ef09d4e21e1a8894ec,6734e031a56e451743d067b2,2024-11-13_14h22.23.364,Tarea de género gramatical,2024.2.2,Win32,144.092219,,,,,,,,,,,,,,,,,,,,,,,266.783,267.824,l,1,0.383,,[],[],[],[],[],[],[],0.383,1,267.824,268.323,,,,,,713,MAS,DIS,150,carro,la,l,268.323,268.324,0.214074074,-0.067407407,0,0,0,,0,80,80,262,1,,,,
,,,,,,f8d8455cf826f76fd9a75dee,66a626ef09d4e21e1a8894ec,6734e031a56e451743d067b2,2024-11-13_14h22.23.364,Tarea de género gramatical,2024.2.2,Win32,144.092219,,,,,,,,,,,,,,,,,,,,,,,268.325,269.386,l,1,0.404,,[],[],[],[],[],[],[],0.404,1,269.386,269.886,,,,,,629,MAS,DIS,150,viaje,la,l,269.886,269.886,0.214074074,-0.067407407,0,0,0,,0,81,81,178,1,,,,
,,,,,,f8d8455cf826f76fd9a75dee,66a626ef09d4e21e1a8894ec,6734e031a56e451743d067b2,2024-11-13_14h22.23.364,Tarea de género gramatical,2024.2.2,Win32,144.092219,,,,,,,,,,,,,,,,,,,,,,,269.887,270.956,a,1,0.411,,[],[],[],[],[],[],[],0.411,1,270.956,271.455,,,,,,595,FEM,CON,150,bota,,a,271.455,271.455,0.214074074,-0.067407407,0,0,0,,0,82,82,144,1,,,,
,,,,,,f8d8455cf826f76fd9a75dee,66a626ef09d4e21e1a8894ec,6734e031a56e451743d067b2,2024-11-13_14h22.23.364,Tarea de género gramatical,2024.2.2,Win32,144.092219,,,,,,,,,,,,,,,,,,,,,,,271.456,272.656,a,1,0.542,,[],[],[],[],[],[],[],0.542,1,272.656,273.157,,,,,,573,FEM,AGR,150,tela,la,a,273.157,273.158,0.214074074,-0.067407407,0,0,0,,0,83,83,122,1,,,,
,,,,,,f8d8455cf826f76fd9a75dee,66a626ef09d4e21e1a8894ec,6734e031a56e451743d067b2,2024-11-13_14h22.23.364,Tarea de género gramatical,2024.2.2,Win32,144.092219,,,,,,,,,,,,,,,,,,,,,,,273.159,274.157,a,1,0.344,,[],[],[],[],[],[],[],0.344,1,274.157,274.657,,,,,,835,FEM,CON,150,muñeca,,a,274.657,274.657,0.214074074,-0.067407407,0,0,0,,0,84,84,384,1,,,,
,,,,,,f8d8455cf826f76fd9a75dee,66a626ef09d4e21e1a8894ec,6734e031a56e451743d067b2,2024-11-13_14h22.23.364,Tarea de género gramatical,2024.2.2,Win32,144.092219,,,,,,,,,,,,,,,,,,,,,,,274.658,275.781,l,1,0.469,,[],[],[],[],[],[],[],0.469,1,275.782,276.282,,,,,,773,MAS,DIS,150,marido,la,l,276.282,276.282,0.214074074,-0.067407407,0,0,0,,0,85,85,322,1,,,,
,,,,,,f8d8455cf826f76fd9a75dee,66a626ef09d4e21e1a8894ec,6734e031a56e451743d067b2,2024-11-13_14h22.23.364,Tarea de género gramatical,2024.2.2,Win32,144.092219,,,,,,,,,,,,,,,,,,,,,,,276.282,277.288,a,1,0.348,,[],[],[],[],[],[],[],0.348,1,277.289,277.789,,,,,,615,FEM,AGR,150,amiga,la,a,277.789,277.789,0.214074074,-0.067407407,0,0,0,,0,86,86,164,1,,,,
,,,,,,f8d8455cf826f76fd9a75dee,66a626ef09d4e21e1a8894ec,6734e031a56e451743d067b2,2024-11-13_14h22.23.364,Tarea de género gramatical,2024.2.2,Win32,144.092219,,,,,,,,,,,,,,,,,,,,,,,277.79,278.962,l,1,0.516,,[],[],[],[],[],[],[],0.516,1,278.962,279.462,,,,,,604,MAS,CON,150,padre,,l,279.463,279.464,0.214074074,-0.067407407,0,0,0,,0,87,87,153,1,,,,
,,,,,,f8d8455cf826f76fd9a75dee,66a626ef09d4e21e1a8894ec,6734e031a56e451743d067b2,2024-11-13_14h22.23.364,Tarea de género gramatical,2024.2.2,Win32,144.092219,,,,,,,,,,,,,,,,,,,,,,,279.464,280.56,l,1,0.438,,[],[],[],[],[],[],[],0.438,1,280.56,281.059,,,,,,833,MAS,DIS,150,parque,la,l,281.059,281.059,0.214074074,-0.067407407,0,0,0,,0,88,88,382,1,,,,
,,,,,,f8d8455cf826f76fd9a75dee,66a626ef09d4e21e1a8894ec,6734e031a56e451743d067b2,2024-11-13_14h22.23.364,Tarea de género gramatical,2024.2.2,Win32,144.092219,,,,,,,,,,,,,,,,,,,,,,,281.06,282.116,a,1,0.397,,[],[],[],[],[],[],[],0.397,1,282.116,282.615,,,,,,667,FEM,CON,150,tarea,,a,282.615,282.615,0.214074074,-0.067407407,0,0,0,,0,89,89,216,1,,,,
,,,,,,f8d8455cf826f76fd9a75dee,66a626ef09d4e21e1a8894ec,6734e031a56e451743d067b2,2024-11-13_14h22.23.364,Tarea de género gramatical,2024.2.2,Win32,144.092219,,,,,,,,,,,,,,,,,,,,,,,282.616,283.698,a,1,0.425,,[],[],[],[],[],[],[],0.425,1,283.698,284.199,,,,,,663,FEM,AGR,150,magia,la,a,284.199,284.199,0.214074074,-0.067407407,0,0,0,,0,90,90,212,1,,,,
,,,,,,f8d8455cf826f76fd9a75dee,66a626ef09d4e21e1a8894ec,6734e031a56e451743d067b2,2024-11-13_14h22.23.364,Tarea de género gramatical,2024.2.2,Win32,144.092219,,,,,,,,,,,,,,,,,,,,,,,284.199,285.268,l,1,0.41,,[],[],[],[],[],[],[],0.41,1,285.269,285.769,,,,,,808,MAS,CON,150,motivo,,l,285.769,285.769,0.214074074,-0.067407407,0,0,0,,0,91,91,357,1,,,,
,,,,,,f8d8455cf826f76fd9a75dee,66a626ef09d4e21e1a8894ec,6734e031a56e451743d067b2,2024-11-13_14h22.23.364,Tarea de género gramatical,2024.2.2,Win32,144.092219,,,,,,,,,,,,,,,,,,,,,,,285.77,286.81,a,1,0.382,,[],[],[],[],[],[],[],0.382,1,286.81,287.31,,,,,,775,FEM,CON,150,tierra,,a,287.311,287.312,0.214074074,-0.067407407,0,0,0,,0,92,92,324,1,,,,
,,,,,,f8d8455cf826f76fd9a75dee,66a626ef09d4e21e1a8894ec,6734e031a56e451743d067b2,2024-11-13_14h22.23.364,Tarea de género gramatical,2024.2.2,Win32,144.092219,,,,,,,,,,,,,,,,,,,,,,,287.312,288.379,a,1,0.402,,[],[],[],[],[],[],[],0.402,1,288.38,288.879,,,,,,836,FEM,DIS,150,sombra,el,a,288.879,288.879,0.214074074,-0.067407407,0,0,0,,0,93,93,385,1,,,,
,,,,,,f8d8455cf826f76fd9a75dee,66a626ef09d4e21e1a8894ec,6734e031a56e451743d067b2,2024-11-13_14h22.23.364,Tarea de género gramatical,2024.2.2,Win32,144.092219,,,,,,,,,,,,,,,,,,,,,,,288.88,289.921,a,1,0.382,,[],[],[],[],[],[],[],0.382,1,289.921,290.421,,,,,,704,FEM,DIS,150,caída,el,a,290.421,290.421,0.214074074,-0.067407407,0,0,0,,0,94,94,253,1,,,,
,,,,,,f8d8455cf826f76fd9a75dee,66a626ef09d4e21e1a8894ec,6734e031a56e451743d067b2,2024-11-13_14h22.23.364,Tarea de género gramatical,2024.2.2,Win32,144.092219,,,,,,,,,,,,,,,,,,,,,,,290.422,291.47,l,1,0.392,,[],[],[],[],[],[],[],0.392,1,291.47,291.969,,,,,,544,MAS,CON,150,cabo,,l,291.969,291.969,0.214074074,-0.067407407,0,0,0,,0,95,95,93,1,,,,
,,,,,,f8d8455cf826f76fd9a75dee,66a626ef09d4e21e1a8894ec,6734e031a56e451743d067b2,2024-11-13_14h22.23.364,Tarea de género gramatical,2024.2.2,Win32,144.092219,,,,,,,,,,,,,,,,,,,,,,,291.97,293.13,a,1,0.5,,[],[],[],[],[],[],[],0.5,1,293.13,293.629,,,,,,571,FEM,CON,150,pila,,a,293.63,293.632,0.214074074,-0.067407407,0,0,0,,0,96,96,120,1,,,,
,,,,,,f8d8455cf826f76fd9a75dee,66a626ef09d4e21e1a8894ec,6734e031a56e451743d067b2,2024-11-13_14h22.23.364,Tarea de género gramatical,2024.2.2,Win32,144.092219,,,,,,,,,,,,,,,,,,,,,,,293.632,294.671,a,1,0.377,,[],[],[],[],[],[],[],0.377,1,294.671,295.17,,,,,,830,FEM,DIS,150,madera,el,a,295.171,295.172,0.214074074,-0.067407407,0,0,0,,0,97,97,379,1,,,,
,,,,,,f8d8455cf826f76fd9a75dee,66a626ef09d4e21e1a8894ec,6734e031a56e451743d067b2,2024-11-13_14h22.23.364,Tarea de género gramatical,2024.2.2,Win32,144.092219,,,,,,,,,,,,,,,,,,,,,,,295.173,296.351,l,1,0.521,,[],[],[],[],[],[],[],0.521,1,296.352,296.851,,,,,,682,MAS,CON,150,calor,,l,296.851,296.851,0.214074074,-0.067407407,0,0,0,,0,98,98,231,1,,,,
,,,,,,f8d8455cf826f76fd9a75dee,66a626ef09d4e21e1a8894ec,6734e031a56e451743d067b2,2024-11-13_14h22.23.364,Tarea de género gramatical,2024.2.2,Win32,144.092219,,,,,,,,,,,,,,,,,,,,,,,296.852,298.143,a,1,0.632,,[],[],[],[],[],[],[],0.632,1,298.143,298.643,,,,,,524,FEM,DIS,150,flor,el,a,298.643,298.644,0.214074074,-0.067407407,0,0,0,,0,99,99,73,1,,,,
,,,,,,f8d8455cf826f76fd9a75dee,66a626ef09d4e21e1a8894ec,6734e031a56e451743d067b2,2024-11-13_14h22.23.364,Tarea de género gramatical,2024.2.2,Win32,144.092219,,,,,,,,,,,,,,,,,,,,,,,298.644,299.872,a,1,0.569,,[],[],[],[],[],[],[],0.569,1,299.872,300.372,,,,,,686,FEM,DIS,150,deuda,el,a,300.372,300.373,0.214074074,-0.067407407,0,0,0,,0,100,100,235,1,,,,
,,,,,,f8d8455cf826f76fd9a75dee,66a626ef09d4e21e1a8894ec,6734e031a56e451743d067b2,2024-11-13_14h22.23.364,Tarea de género gramatical,2024.2.2,Win32,144.092219,,,,,,,,,,,,,,,,,,,,,,,300.373,301.567,l,1,0.537,,[],[],[],[],[],[],[],0.537,1,301.567,302.066,,,,,,874,MAS,CON,150,rastro,,l,302.067,302.068,0.214074074,-0.067407407,0,0,0,,0,101,101,423,1,,,,
,,,,,,f8d8455cf826f76fd9a75dee,66a626ef09d4e21e1a8894ec,6734e031a56e451743d067b2,2024-11-13_14h22.23.364,Tarea de género gramatical,2024.2.2,Win32,144.092219,,,,,,,,,,,,,,,,,,,,,,,302.068,303.31,l,1,0.586,,[],[],[],[],[],[],[],0.586,1,303.311,303.81,,,,,,540,MAS,AGR,150,león,el,l,303.81,303.81,0.214074074,-0.067407407,0,0,0,,0,102,102,89,1,,,,
,,,,,,f8d8455cf826f76fd9a75dee,66a626ef09d4e21e1a8894ec,6734e031a56e451743d067b2,2024-11-13_14h22.23.364,Tarea de género gramatical,2024.2.2,Win32,144.092219,,,,,,,,,,,,,,,,,,,,,,,303.81,304.831,a,1,0.362,,[],[],[],[],[],[],[],0.362,1,304.831,305.331,,,,,,483,FEM,AGR,150,boda,la,a,305.331,305.331,0.214074074,-0.067407407,0,0,0,,0,103,103,32,1,,,,
,,,,,,f8d8455cf826f76fd9a75dee,66a626ef09d4e21e1a8894ec,6734e031a56e451743d067b2,2024-11-13_14h22.23.364,Tarea de género gramatical,2024.2.2,Win32,144.092219,,,,,,,,,,,,,,,,,,,,,,,305.332,306.387,a,1,0.395,,[],[],[],[],[],[],[],0.395,1,306.387,306.886,,,,,,740,FEM,DIS,150,cabra,el,a,306.886,306.886,0.214074074,-0.067407407,0,0,0,,0,104,104,289,1,,,,
,,,,,,f8d8455cf826f76fd9a75dee,66a626ef09d4e21e1a8894ec,6734e031a56e451743d067b2,2024-11-13_14h22.23.364,Tarea de género gramatical,2024.2.2,Win32,144.092219,,,,,,,,,,,,,,,,,,,,,,,306.887,307.921,l,1,0.375,,[],[],[],[],[],[],[],0.375,1,307.921,308.421,,,,,,724,MAS,CON,150,motor,,l,308.422,308.423,0.214074074,-0.067407407,0,0,0,,0,105,105,273,1,,,,
,,,,,,f8d8455cf826f76fd9a75dee,66a626ef09d4e21e1a8894ec,6734e031a56e451743d067b2,2024-11-13_14h22.23.364,Tarea de género gramatical,2024.2.2,Win32,144.092219,,,,,,,,,,,,,,,,,,,,,,,308.423,309.574,l,1,0.489,,[],[],[],[],[],[],[],0.489,1,309.574,310.074,,,,,,545,MAS,DIS,150,tomo,la,l,310.074,310.074,0.214074074,-0.067407407,0,0,0,,0,106,106,94,1,,,,
,,,,,,f8d8455cf826f76fd9a75dee,66a626ef09d4e21e1a8894ec,6734e031a56e451743d067b2,2024-11-13_14h22.23.364,Tarea de género gramatical,2024.2.2,Win32,144.092219,,,,,,,,,,,,,,,,,,,,,,,310.075,311.178,l,1,0.445,,[],[],[],[],[],[],[],0.445,1,311.178,311.677,,,,,,610,MAS,CON,150,señor,,l,311.678,311.678,0.214074074,-0.067407407,0,0,0,,0,107,107,159,1,,,,
,,,,,,f8d8455cf826f76fd9a75dee,66a626ef09d4e21e1a8894ec,6734e031a56e451743d067b2,2024-11-13_14h22.23.364,Tarea de género gramatical,2024.2.2,Win32,144.092219,,,,,,,,,,,,,,,,,,,,,,,311.679,312.81,l,1,0.473,,[],[],[],[],[],[],[],0.473,1,312.81,313.31,,,,,,744,MAS,AGR,150,cable,el,l,313.31,313.31,0.214074074,-0.067407407,0,0,0,,0,108,108,293,1,,,,
,,,,,,f8d8455cf826f76fd9a75dee,66a626ef09d4e21e1a8894ec,6734e031a56e451743d067b2,2024-11-13_14h22.23.364,Tarea de género gramatical,2024.2.2,Win32,144.092219,,,,,,,,,,,,,,,,,,,,,,,313.31,314.574,l,1,0.608,,[],[],[],[],[],[],[],0.608,1,314.574,315.074,,,,,,822,MAS,AGR,150,delito,el,l,315.074,315.074,0.214074074,-0.067407407,0,0,0,,0,109,109,371,1,,,,
,,,,,,f8d8455cf826f76fd9a75dee,66a626ef09d4e21e1a8894ec,6734e031a56e451743d067b2,2024-11-13_14h22.23.364,Tarea de género gramatical,2024.2.2,Win32,144.092219,,,,,,,,,,,,,,,,,,,,,,,315.075,316.219,a,1,0.486,,[],[],[],[],[],[],[],0.486,1,316.219,316.714,,,,,,519,FEM,AGR,150,rata,la,a,316.714,316.715,0.214074074,-0.067407407,0,0,0,,0,110,110,68,1,,,,
,,,,,,f8d8455cf826f76fd9a75dee,66a626ef09d4e21e1a8894ec,6734e031a56e451743d067b2,2024-11-13_14h22.23.364,Tarea de género gramatical,2024.2.2,Win32,144.092219,,,,,,,,,,,,,,,,,,,,,,,316.715,317.921,l,1,0.549,,[],[],[],[],[],[],[],0.549,1,317.921,318.421,,,,,,671,MAS,DIS,150,brazo,la,l,318.421,318.421,0.214074074,-0.067407407,0,0,0,,0,111,111,220,1,,,,
,,,,,,f8d8455cf826f76fd9a75dee,66a626ef09d4e21e1a8894ec,6734e031a56e451743d067b2,2024-11-13_14h22.23.364,Tarea de género gramatical,2024.2.2,Win32,144.092219,,,,,,,,,,,,,,,,,,,,,,,318.422,319.581,a,1,0.503,,[],[],[],[],[],[],[],0.503,1,319.582,320.081,,,,,,687,FEM,AGR,150,ducha,la,a,320.081,320.081,0.214074074,-0.067407407,0,0,0,,0,112,112,236,1,,,,
,,,,,,f8d8455cf826f76fd9a75dee,66a626ef09d4e21e1a8894ec,6734e031a56e451743d067b2,2024-11-13_14h22.23.364,Tarea de género gramatical,2024.2.2,Win32,144.092219,,,,,,,,,,,,,,,,,,,,,,,320.082,321.199,a,1,0.46,,[],[],[],[],[],[],[],0.46,1,321.199,321.699,,,,,,805,FEM,CON,150,mirada,,a,321.699,321.699,0.214074074,-0.067407407,0,0,0,,0,113,113,354,1,,,,
,,,,,,f8d8455cf826f76fd9a75dee,66a626ef09d4e21e1a8894ec,6734e031a56e451743d067b2,2024-11-13_14h22.23.364,Tarea de género gramatical,2024.2.2,Win32,144.092219,,,,,,,,,,,,,,,,,,,,,,,321.7,322.719,a,1,0.362,,[],[],[],[],[],[],[],0.362,1,322.719,323.22,,,,,,553,FEM,CON,150,fama,,a,323.22,323.221,0.214074074,-0.067407407,0,0,0,,0,114,114,102,1,,,,
,,,,,,f8d8455cf826f76fd9a75dee,66a626ef09d4e21e1a8894ec,6734e031a56e451743d067b2,2024-11-13_14h22.23.364,Tarea de género gramatical,2024.2.2,Win32,144.092219,,,,,,,,,,,,,,,,,,,,,,,323.222,324.31,a,1,0.432,,[],[],[],[],[],[],[],0.432,1,324.311,324.81,,,,,,583,FEM,CON,150,joya,,a,324.81,324.81,0.214074074,-0.067407407,0,0,0,,0,115,115,132,1,,,,
,,,,,,f8d8455cf826f76fd9a75dee,66a626ef09d4e21e1a8894ec,6734e031a56e451743d067b2,2024-11-13_14h22.23.364,Tarea de género gramatical,2024.2.2,Win32,144.092219,,,,,,,,,,,,,,,,,,,,,,,324.811,325.873,l,1,0.403,,[],[],[],[],[],[],[],0.403,1,325.873,326.372,,,,,,556,MAS,CON,150,test,,l,326.372,326.372,0.214074074,-0.067407407,0,0,0,,0,116,116,105,1,,,,
,,,,,,f8d8455cf826f76fd9a75dee,66a626ef09d4e21e1a8894ec,6734e031a56e451743d067b2,2024-11-13_14h22.23.364,Tarea de género gramatical,2024.2.2,Win32,144.092219,,,,,,,,,,,,,,,,,,,,,,,326.373,327.477,a,1,0.449,,[],[],[],[],[],[],[],0.449,1,327.477,327.976,,,,,,554,FEM,DIS,150,vela,el,a,327.976,327.977,0.214074074,-0.067407407,0,0,0,,0,117,117,103,1,,,,
,,,,,,f8d8455cf826f76fd9a75dee,66a626ef09d4e21e1a8894ec,6734e031a56e451743d067b2,2024-11-13_14h22.23.364,Tarea de género gramatical,2024.2.2,Win32,144.092219,,,,,,,,,,,,,,,,,,,,,,,327.977,329.109,l,1,0.476,,[],[],[],[],[],[],[],0.476,1,329.109,329.609,,,,,,484,MAS,CON,150,gato,,l,329.609,329.609,0.214074074,-0.067407407,0,0,0,,0,118,118,33,1,,,,
,,,,,,f8d8455cf826f76fd9a75dee,66a626ef09d4e21e1a8894ec,6734e031a56e451743d067b2,2024-11-13_14h22.23.364,Tarea de género gramatical,2024.2.2,Win32,144.092219,,,,,,,,,,,,,,,,,,,,,,,329.61,330.789,l,1,0.523,,[],[],[],[],[],[],[],0.523,1,330.79,331.289,,,,,,672,MAS,AGR,150,valor,el,l,331.29,331.291,0.214074074,-0.067407407,0,0,0,,0,119,119,221,1,,,,
,,,,,,f8d8455cf826f76fd9a75dee,66a626ef09d4e21e1a8894ec,6734e031a56e451743d067b2,2024-11-13_14h22.23.364,Tarea de género gramatical,2024.2.2,Win32,144.092219,,,,,,,,,,,,,,,,,,,,,,,331.292,332.296,a,1,0.347,,[],[],[],[],[],[],[],0.347,1,332.297,332.796,,,,,,585,FEM,AGR,150,raíz,la,a,332.796,332.796,0.214074074,-0.067407407,0,0,0,,0,120,120,134,1,,,,
,,,,,,f8d8455cf826f76fd9a75dee,66a626ef09d4e21e1a8894ec,6734e031a56e451743d067b2,2024-11-13_14h22.23.364,Tarea de género gramatical,2024.2.2,Win32,144.092219,,,,,,,,,,,,,,,,,,,,,,,332.797,333.921,a,1,0.466,,[],[],[],[],[],[],[],0.466,1,333.921,334.422,,,,,,669,FEM,AGR,150,costa,la,a,334.422,334.422,0.214074074,-0.067407407,0,0,0,,0,121,121,218,1,,,,
,,,,,,f8d8455cf826f76fd9a75dee,66a626ef09d4e21e1a8894ec,6734e031a56e451743d067b2,2024-11-13_14h22.23.364,Tarea de género gramatical,2024.2.2,Win32,144.092219,,,,,,,,,,,,,,,,,,,,,,,334.423,335.776,l,1,0.695,,[],[],[],[],[],[],[],0.695,1,335.776,336.275,,,,,,461,MAS,DIS,150,país,la,l,336.275,336.276,0.214074074,-0.067407407,0,0,0,,0,122,122,10,1,,,,
,,,,,,f8d8455cf826f76fd9a75dee,66a626ef09d4e21e1a8894ec,6734e031a56e451743d067b2,2024-11-13_14h22.23.364,Tarea de género gramatical,2024.2.2,Win32,144.092219,,,,,,,,,,,,,,,,,,,,,,,336.276,337.442,a,1,0.508,,[],[],[],[],[],[],[],0.508,1,337.442,337.942,,,,,,475,FEM,CON,150,nave,,a,337.943,337.944,0.214074074,-0.067407407,0,0,0,,0,123,123,24,1,,,,
,,,,,,f8d8455cf826f76fd9a75dee,66a626ef09d4e21e1a8894ec,6734e031a56e451743d067b2,2024-11-13_14h22.23.364,Tarea de género gramatical,2024.2.2,Win32,144.092219,,,,,,,,,,,,,,,,,,,,,,,337.944,338.983,a,1,0.375,,[],[],[],[],[],[],[],0.375,1,338.984,339.484,,,,,,675,FEM,AGR,150,pieza,la,a,339.484,339.484,0.214074074,-0.067407407,0,0,0,,0,124,124,224,1,,,,
,,,,,,f8d8455cf826f76fd9a75dee,66a626ef09d4e21e1a8894ec,6734e031a56e451743d067b2,2024-11-13_14h22.23.364,Tarea de género gramatical,2024.2.2,Win32,144.092219,,,,,,,,,,,,,,,,,,,,,,,339.485,340.671,a,1,0.528,,[],[],[],[],[],[],[],0.528,1,340.672,341.172,,,,,,499,FEM,CON,150,piel,,a,341.172,341.172,0.214074074,-0.067407407,0,0,0,,0,125,125,48,1,,,,
,,,,,,f8d8455cf826f76fd9a75dee,66a626ef09d4e21e1a8894ec,6734e031a56e451743d067b2,2024-11-13_14h22.23.364,Tarea de género gramatical,2024.2.2,Win32,144.092219,,,,,,,,,,,,,,,,,,,,,,,341.173,342.442,l,1,0.611,,[],[],[],[],[],[],[],0.611,1,342.442,342.943,,,,,,587,MAS,DIS,150,coco,la,l,342.943,342.943,0.214074074,-0.067407407,0,0,0,,0,126,126,136,1,,,,
,,,,,,f8d8455cf826f76fd9a75dee,66a626ef09d4e21e1a8894ec,6734e031a56e451743d067b2,2024-11-13_14h22.23.364,Tarea de género gramatical,2024.2.2,Win32,144.092219,,,,,,,,,,,,,,,,,,,,,,,342.943,343.963,a,1,0.361,,[],[],[],[],[],[],[],0.361,1,343.964,344.463,,,,,,512,FEM,DIS,150,sopa,el,a,344.463,344.463,0.214074074,-0.067407407,0,0,0,,0,127,127,61,1,,,,
,,,,,,f8d8455cf826f76fd9a75dee,66a626ef09d4e21e1a8894ec,6734e031a56e451743d067b2,2024-11-13_14h22.23.364,Tarea de género gramatical,2024.2.2,Win32,144.092219,,,,,,,,,,,,,,,,,,,,,,,344.464,345.63,l,1,0.509,,[],[],[],[],[],[],[],0.509,1,345.63,346.13,,,,,,762,MAS,AGR,150,equipo,el,l,346.131,346.131,0.214074074,-0.067407407,0,0,0,,0,128,128,311,1,,,,
,,,,,,f8d8455cf826f76fd9a75dee,66a626ef09d4e21e1a8894ec,6734e031a56e451743d067b2,2024-11-13_14h22.23.364,Tarea de género gramatical,2024.2.2,Win32,144.092219,,,,,,,,,,,,,,,,,,,,,,,346.132,347.165,a,1,0.372,,[],[],[],[],[],[],[],0.372,1,347.165,347.665,,,,,,560,FEM,DIS,150,rosa,el,a,347.665,347.665,0.214074074,-0.067407407,0,0,0,,0,129,129,109,1,,,,
,,,,,,f8d8455cf826f76fd9a75dee,66a626ef09d4e21e1a8894ec,6734e031a56e451743d067b2,2024-11-13_14h22.23.364,Tarea de género gramatical,2024.2.2,Win32,144.092219,,,,,,,,,,,,,,,,,,,,,,,347.665,348.762,l,1,0.438,,[],[],[],[],[],[],[],0.438,1,348.763,349.262,,,,,,641,MAS,DIS,150,dolor,la,l,349.262,349.262,0.214074074,-0.067407407,0,0,0,,0,130,130,190,1,,,,
,,,,,,f8d8455cf826f76fd9a75dee,66a626ef09d4e21e1a8894ec,6734e031a56e451743d067b2,2024-11-13_14h22.23.364,Tarea de género gramatical,2024.2.2,Win32,144.092219,,,,,,,,,,,,,,,,,,,,,,,349.263,350.38,a,1,0.458,,[],[],[],[],[],[],[],0.458,1,350.38,350.88,,,,,,819,FEM,AGR,150,camisa,la,a,350.88,350.88,0.214074074,-0.067407407,0,0,0,,0,131,131,368,1,,,,
,,,,,,f8d8455cf826f76fd9a75dee,66a626ef09d4e21e1a8894ec,6734e031a56e451743d067b2,2024-11-13_14h22.23.364,Tarea de género gramatical,2024.2.2,Win32,144.092219,,,,,,,,,,,,,,,,,,,,,,,350.881,352.068,l,1,0.528,,[],[],[],[],[],[],[],0.528,1,352.069,352.567,,,,,,756,MAS,AGR,150,dinero,el,l,352.569,352.571,0.214074074,-0.067407407,0,0,0,,0,132,132,305,1,,,,
,,,,,,f8d8455cf826f76fd9a75dee,66a626ef09d4e21e1a8894ec,6734e031a56e451743d067b2,2024-11-13_14h22.23.364,Tarea de género gramatical,2024.2.2,Win32,144.092219,,,,,,,,,,,,,,,,,,,,,,,352.572,353.63,a,1,0.399,,[],[],[],[],[],[],[],0.399,1,353.63,354.13,,,,,,451,FEM,CON,150,casa,,a,354.13,354.13,0.214074074,-0.067407407,0,0,0,,0,133,133,0,1,,,,
,,,,,,f8d8455cf826f76fd9a75dee,66a626ef09d4e21e1a8894ec,6734e031a56e451743d067b2,2024-11-13_14h22.23.364,Tarea de género gramatical,2024.2.2,Win32,144.092219,,,,,,,,,,,,,,,,,,,,,,,354.131,355.283,l,1,0.493,,[],[],[],[],[],[],[],0.493,1,355.283,355.783,,,,,,780,MAS,AGR,150,estado,el,l,355.783,355.783,0.214074074,-0.067407407,0,0,0,,0,134,134,329,1,,,,
,,,,,,f8d8455cf826f76fd9a75dee,66a626ef09d4e21e1a8894ec,6734e031a56e451743d067b2,2024-11-13_14h22.23.364,Tarea de género gramatical,2024.2.2,Win32,144.092219,,,,,,,,,,,,,,,,,,,,,,,355.784,356.936,l,1,0.495,,[],[],[],[],[],[],[],0.495,1,356.936,357.436,,,,,,628,MAS,CON,150,punto,,l,357.436,357.436,0.214074074,-0.067407407,0,0,0,,0,135,135,177,1,,,,
,,,,,,f8d8455cf826f76fd9a75dee,66a626ef09d4e21e1a8894ec,6734e031a56e451743d067b2,2024-11-13_14h22.23.364,Tarea de género gramatical,2024.2.2,Win32,144.092219,,,,,,,,,,,,,,,,,,,,,,,357.436,358.449,a,1,0.355,,[],[],[],[],[],[],[],0.355,1,358.45,358.95,,,,,,698,FEM,DIS,150,letra,el,a,358.95,358.95,0.214074074,-0.067407407,0,0,0,,0,136,136,247,1,,,,
,,,,,,f8d8455cf826f76fd9a75dee,66a626ef09d4e21e1a8894ec,6734e031a56e451743d067b2,2024-11-13_14h22.23.364,Tarea de género gramatical,2024.2.2,Win32,144.092219,,,,,,,,,,,,,,,,,,,,,,,358.951,360.026,l,1,0.416,,[],[],[],[],[],[],[],0.416,1,360.026,360.526,,,,,,456,MAS,AGR,150,lado,el,l,360.526,360.527,0.214074074,-0.067407407,0,0,0,,0,137,137,5,1,,,,
,,,,,,f8d8455cf826f76fd9a75dee,66a626ef09d4e21e1a8894ec,6734e031a56e451743d067b2,2024-11-13_14h22.23.364,Tarea de género gramatical,2024.2.2,Win32,144.092219,,,,,,,,,,,,,,,,,,,,,,,360.528,361.616,a,1,0.431,,[],[],[],[],[],[],[],0.431,1,361.616,362.116,,,,,,728,FEM,DIS,150,presa,el,a,362.116,362.116,0.214074074,-0.067407407,0,0,0,,0,138,138,277,1,,,,
,,,,,,f8d8455cf826f76fd9a75dee,66a626ef09d4e21e1a8894ec,6734e031a56e451743d067b2,2024-11-13_14h22.23.364,Tarea de género gramatical,2024.2.2,Win32,144.092219,,,,,,,,,,,,,,,,,,,,,,,362.117,363.214,l,1,0.44,,[],[],[],[],[],[],[],0.44,1,363.214,363.713,,,,,,532,MAS,CON,150,tubo,,l,363.713,363.713,0.214074074,-0.067407407,0,0,0,,0,139,139,81,1,,,,
,,,,,,f8d8455cf826f76fd9a75dee,66a626ef09d4e21e1a8894ec,6734e031a56e451743d067b2,2024-11-13_14h22.23.364,Tarea de género gramatical,2024.2.2,Win32,144.092219,,,,,,,,,,,,,,,,,,,,,,,363.715,364.943,a,0,0.571,,[],[],[],[],[],[],[],0.571,0,364.943,365.443,,,,,,503,MAS,DIS,150,vaso,la,l,365.443,365.443,0.214074074,-0.067407407,0,0,0,,0,140,140,52,1,,,,
,,,,,,f8d8455cf826f76fd9a75dee,66a626ef09d4e21e1a8894ec,6734e031a56e451743d067b2,2024-11-13_14h22.23.364,Tarea de género gramatical,2024.2.2,Win32,144.092219,,,,,,,,,,,,,,,,,,,,,,,365.444,366.575,a,1,0.475,,[],[],[],[],[],[],[],0.475,1,366.575,367.074,,,,,,871,FEM,CON,150,novela,,a,367.075,367.075,0.214074074,-0.067407407,0,0,0,,0,141,141,420,1,,,,
,,,,,,f8d8455cf826f76fd9a75dee,66a626ef09d4e21e1a8894ec,6734e031a56e451743d067b2,2024-11-13_14h22.23.364,Tarea de género gramatical,2024.2.2,Win32,144.092219,,,,,,,,,,,,,,,,,,,,,,,367.076,368.165,a,1,0.434,,[],[],[],[],[],[],[],0.434,1,368.165,368.664,,,,,,453,FEM,AGR,150,cosa,la,a,368.664,368.665,0.214074074,-0.067407407,0,0,0,,0,142,142,2,1,,,,
,,,,,,f8d8455cf826f76fd9a75dee,66a626ef09d4e21e1a8894ec,6734e031a56e451743d067b2,2024-11-13_14h22.23.364,Tarea de género gramatical,2024.2.2,Win32,144.092219,,,,,,,,,,,,,,,,,,,,,,,368.665,369.734,l,1,0.412,,[],[],[],[],[],[],[],0.412,1,369.734,370.234,,,,,,460,MAS,CON,150,niño,,l,370.235,370.235,0.214074074,-0.067407407,0,0,0,,0,143,143,9,1,,,,
,,,,,,f8d8455cf826f76fd9a75dee,66a626ef09d4e21e1a8894ec,6734e031a56e451743d067b2,2024-11-13_14h22.23.364,Tarea de género gramatical,2024.2.2,Win32,144.092219,,,,,,,,,,,,,,,,,,,,,,,370.236,371.345,l,1,0.451,,[],[],[],[],[],[],[],0.451,1,371.345,371.845,,,,,,761,MAS,DIS,150,camino,la,l,371.845,371.845,0.214074074,-0.067407407,0,0,0,,0,144,144,310,1,,,,
,,,,,,f8d8455cf826f76fd9a75dee,66a626ef09d4e21e1a8894ec,6734e031a56e451743d067b2,2024-11-13_14h22.23.364,Tarea de género gramatical,2024.2.2,Win32,144.092219,,,,,,,,,,,,,,,,,,,,,,,371.846,372.915,a,1,0.411,,[],[],[],[],[],[],[],0.411,1,372.915,373.415,,,,,,841,FEM,CON,150,altura,,a,373.415,373.415,0.214074074,-0.067407407,0,0,0,,0,145,145,390,1,,,,
,,,,,,f8d8455cf826f76fd9a75dee,66a626ef09d4e21e1a8894ec,6734e031a56e451743d067b2,2024-11-13_14h22.23.364,Tarea de género gramatical,2024.2.2,Win32,144.092219,,,,,,,,,,,,,,,,,,,,,,,373.416,374.623,l,1,0.549,,[],[],[],[],[],[],[],0.549,1,374.623,375.123,,,,,,844,MAS,CON,150,examen,,l,375.124,375.124,0.214074074,-0.067407407,0,0,0,,0,146,146,393,1,,,,
,,,,,,f8d8455cf826f76fd9a75dee,66a626ef09d4e21e1a8894ec,6734e031a56e451743d067b2,2024-11-13_14h22.23.364,Tarea de género gramatical,2024.2.2,Win32,144.092219,,,,,,,,,,,,,,,,,,,,,,,375.125,376.207,a,1,0.425,,[],[],[],[],[],[],[],0.425,1,376.207,376.706,,,,,,853,FEM,CON,150,paliza,,a,376.706,376.706,0.214074074,-0.067407407,0,0,0,,0,147,147,402,1,,,,
,,,,,,f8d8455cf826f76fd9a75dee,66a626ef09d4e21e1a8894ec,6734e031a56e451743d067b2,2024-11-13_14h22.23.364,Tarea de género gramatical,2024.2.2,Win32,144.092219,,,,,,,,,,,,,,,,,,,,,,,376.707,377.922,a,1,0.556,,[],[],[],[],[],[],[],0.556,1,377.922,378.422,,,,,,783,FEM,AGR,150,locura,la,a,378.422,378.422,0.214074074,-0.067407407,0,0,0,,0,148,148,332,1,,,,
,,,,,,f8d8455cf826f76fd9a75dee,66a626ef09d4e21e1a8894ec,6734e031a56e451743d067b2,2024-11-13_14h22.23.364,Tarea de género gramatical,2024.2.2,Win32,144.092219,,,,,,,,,,,,,,,,,,,,,,,378.424,379.553,l,1,0.472,,[],[],[],[],[],[],[],0.472,1,379.553,380.054,,,,,,732,MAS,AGR,150,bolso,el,l,380.054,380.054,0.214074074,-0.067407407,0,0,0,,0,149,149,281,1,,,,
,,,,,,f8d8455cf826f76fd9a75dee,66a626ef09d4e21e1a8894ec,6734e031a56e451743d067b2,2024-11-13_14h22.23.364,Tarea de género gramatical,2024.2.2,Win32,144.092219,,,,,,,,,,,,,,,,,,,,,,,380.055,381.074,a,0,0.361,,[],[],[],[],[],[],[],0.361,0,381.075,381.575,,,,,,575,MAS,DIS,150,bate,la,l,381.575,442.186,0.214074074,-0.067407407,0,0,0,space,0,150,150,124,1,60.596,,,
,,,,,,f8d8455cf826f76fd9a75dee,66a626ef09d4e21e1a8894ec,6734e031a56e451743d067b2,2024-11-13_14h22.23.364,Tarea de género gramatical,2024.2.2,Win32,144.092219,,,,,,,,,,,,,,,,,,,,,,,442.19,444.312,l,1,1.466,,[],[],[],[],[],[],[],1.466,1,444.313,444.812,,,,,,496,MAS,CON,150,odio,,l,444.812,444.812,0.214074074,-0.067407407,0,0,0,,0,151,151,45,1,,,,
,,,,,,f8d8455cf826f76fd9a75dee,66a626ef09d4e21e1a8894ec,6734e031a56e451743d067b2,2024-11-13_14h22.23.364,Tarea de género gramatical,2024.2.2,Win32,144.092219,,,,,,,,,,,,,,,,,,,,,,,444.813,446.047,l,1,0.577,,[],[],[],[],[],[],[],0.577,1,446.048,446.548,,,,,,480,MAS,AGR,150,cine,el,l,446.548,446.548,0.214074074,-0.067407407,0,0,0,,0,152,152,29,1,,,,
,,,,,,f8d8455cf826f76fd9a75dee,66a626ef09d4e21e1a8894ec,6734e031a56e451743d067b2,2024-11-13_14h22.23.364,Tarea de género gramatical,2024.2.2,Win32,144.092219,,,,,,,,,,,,,,,,,,,,,,,446.549,447.631,a,1,0.425,,[],[],[],[],[],[],[],0.425,1,447.631,448.131,,,,,,769,FEM,CON,150,sangre,,a,448.131,448.131,0.214074074,-0.067407407,0,0,0,,0,153,153,318,1,,,,
,,,,,,f8d8455cf826f76fd9a75dee,66a626ef09d4e21e1a8894ec,6734e031a56e451743d067b2,2024-11-13_14h22.23.364,Tarea de género gramatical,2024.2.2,Win32,144.092219,,,,,,,,,,,,,,,,,,,,,,,448.133,449.353,l,1,0.564,,[],[],[],[],[],[],[],0.564,1,449.353,449.854,,,,,,857,MAS,DIS,150,jurado,la,l,449.854,449.854,0.214074074,-0.067407407,0,0,0,,0,154,154,406,1,,,,
,,,,,,f8d8455cf826f76fd9a75dee,66a626ef09d4e21e1a8894ec,6734e031a56e451743d067b2,2024-11-13_14h22.23.364,Tarea de género gramatical,2024.2.2,Win32,144.092219,,,,,,,,,,,,,,,,,,,,,,,449.854,450.944,l,1,0.431,,[],[],[],[],[],[],[],0.431,1,450.944,451.444,,,,,,557,MAS,DIS,150,cubo,la,l,451.444,451.445,0.214074074,-0.067407407,0,0,0,,0,155,155,106,1,,,,
,,,,,,f8d8455cf826f76fd9a75dee,66a626ef09d4e21e1a8894ec,6734e031a56e451743d067b2,2024-11-13_14h22.23.364,Tarea de género gramatical,2024.2.2,Win32,144.092219,,,,,,,,,,,,,,,,,,,,,,,451.445,452.479,a,1,0.378,,[],[],[],[],[],[],[],0.378,1,452.48,452.978,,,,,,530,FEM,DIS,150,vaca,el,a,452.978,452.979,0.214074074,-0.067407407,0,0,0,,0,156,156,79,1,,,,
,,,,,,f8d8455cf826f76fd9a75dee,66a626ef09d4e21e1a8894ec,6734e031a56e451743d067b2,2024-11-13_14h22.23.364,Tarea de género gramatical,2024.2.2,Win32,144.092219,,,,,,,,,,,,,,,,,,,,,,,452.98,454.069,a,1,0.435,,[],[],[],[],[],[],[],0.435,1,454.069,454.568,,,,,,511,FEM,CON,150,ruta,,a,454.568,454.569,0.214074074,-0.067407407,0,0,0,,0,157,157,60,1,,,,
,,,,,,f8d8455cf826f76fd9a75dee,66a626ef09d4e21e1a8894ec,6734e031a56e451743d067b2,2024-11-13_14h22.23.364,Tarea de género gramatical,2024.2.2,Win32,144.092219,,,,,,,,,,,,,,,,,,,,,,,454.57,455.617,a,1,0.389,,[],[],[],[],[],[],[],0.389,1,455.617,456.118,,,,,,645,FEM,AGR,150,pared,la,a,456.118,456.118,0.214074074,-0.067407407,0,0,0,,0,158,158,194,1,,,,
,,,,,,f8d8455cf826f76fd9a75dee,66a626ef09d4e21e1a8894ec,6734e031a56e451743d067b2,2024-11-13_14h22.23.364,Tarea de género gramatical,2024.2.2,Win32,144.092219,,,,,,,,,,,,,,,,,,,,,,,456.119,457.256,l,1,0.478,,[],[],[],[],[],[],[],0.478,1,457.256,457.756,,,,,,642,MAS,AGR,150,grupo,el,l,457.757,457.758,0.214074074,-0.067407407,0,0,0,,0,159,159,191,1,,,,
,,,,,,f8d8455cf826f76fd9a75dee,66a626ef09d4e21e1a8894ec,6734e031a56e451743d067b2,2024-11-13_14h22.23.364,Tarea de género gramatical,2024.2.2,Win32,144.092219,,,,,,,,,,,,,,,,,,,,,,,457.758,458.902,l,0,0.488,,[],[],[],[],[],[],[],0.488,0,458.903,459.402,,,,,,589,FEM,CON,150,pipa,,a,459.402,459.402,0.214074074,-0.067407407,0,0,0,,0,160,160,138,1,,,,
,,,,,,f8d8455cf826f76fd9a75dee,66a626ef09d4e21e1a8894ec,6734e031a56e451743d067b2,2024-11-13_14h22.23.364,Tarea de género gramatical,2024.2.2,Win32,144.092219,,,,,,,,,,,,,,,,,,,,,,,459.403,460.645,l,1,0.586,,[],[],[],[],[],[],[],0.586,1,460.646,461.145,,,,,,468,MAS,AGR,150,tren,el,l,461.145,461.145,0.214074074,-0.067407407,0,0,0,,0,161,161,17,1,,,,
,,,,,,f8d8455cf826f76fd9a75dee,66a626ef09d4e21e1a8894ec,6734e031a56e451743d067b2,2024-11-13_14h22.23.364,Tarea de género gramatical,2024.2.2,Win32,144.092219,,,,,,,,,,,,,,,,,,,,,,,461.146,462.263,l,1,0.459,,[],[],[],[],[],[],[],0.459,1,462.263,462.763,,,,,,760,MAS,CON,150,nombre,,l,462.763,462.763,0.214074074,-0.067407407,0,0,0,,0,162,162,309,1,,,,
,,,,,,f8d8455cf826f76fd9a75dee,66a626ef09d4e21e1a8894ec,6734e031a56e451743d067b2,2024-11-13_14h22.23.364,Tarea de género gramatical,2024.2.2,Win32,144.092219,,,,,,,,,,,,,,,,,,,,,,,462.764,463.777,a,1,0.356,,[],[],[],[],[],[],[],0.356,1,463.777,464.277,,,,,,715,FEM,CON,150,rueda,,a,464.277,464.277,0.214074074,-0.067407407,0,0,0,,0,163,163,264,1,,,,
,,,,,,f8d8455cf826f76fd9a75dee,66a626ef09d4e21e1a8894ec,6734e031a56e451743d067b2,2024-11-13_14h22.23.364,Tarea de género gramatical,2024.2.2,Win32,144.092219,,,,,,,,,,,,,,,,,,,,,,,464.278,465.451,l,1,0.515,,[],[],[],[],[],[],[],0.515,1,465.451,465.95,,,,,,725,MAS,DIS,150,disco,la,l,465.951,465.952,0.214074074,-0.067407407,0,0,0,,0,164,164,274,1,,,,
,,,,,,f8d8455cf826f76fd9a75dee,66a626ef09d4e21e1a8894ec,6734e031a56e451743d067b2,2024-11-13_14h22.23.364,Tarea de género gramatical,2024.2.2,Win32,144.092219,,,,,,,,,,,,,,,,,,,,,,,465.952,467.006,a,1,0.399,,[],[],[],[],[],[],[],0.399,1,467.006,467.506,,,,,,547,FEM,CON,150,capa,,a,467.506,467.506,0.214074074,-0.067407407,0,0,0,,0,165,165,96,1,,,,
,,,,,,f8d8455cf826f76fd9a75dee,66a626ef09d4e21e1a8894ec,6734e031a56e451743d067b2,2024-11-13_14h22.23.364,Tarea de género gramatical,2024.2.2,Win32,144.092219,,,,,,,,,,,,,,,,,,,,,,,467.507,468.54,a,1,0.378,,[],[],[],[],[],[],[],0.378,1,468.54,469.041,,,,,,637,FEM,CON,150,lista,,a,469.041,469.041,0.214074074,-0.067407407,0,0,0,,0,166,166,186,1,,,,
,,,,,,f8d8455cf826f76fd9a75dee,66a626ef09d4e21e1a8894ec,6734e031a56e451743d067b2,2024-11-13_14h22.23.364,Tarea de género gramatical,2024.2.2,Win32,144.092219,,,,,,,,,,,,,,,,,,,,,,,469.042,470.055,l,1,0.356,,[],[],[],[],[],[],[],0.356,1,470.055,470.554,,,,,,562,MAS,CON,150,reto,,l,470.555,470.555,0.214074074,-0.067407407,0,0,0,,0,167,167,111,1,,,,
,,,,,,f8d8455cf826f76fd9a75dee,66a626ef09d4e21e1a8894ec,6734e031a56e451743d067b2,2024-11-13_14h22.23.364,Tarea de género gramatical,2024.2.2,Win32,144.092219,,,,,,,,,,,,,,,,,,,,,,,470.555,471.638,a,1,0.425,,[],[],[],[],[],[],[],0.425,1,471.638,472.139,,,,,,849,FEM,AGR,150,charla,la,a,472.139,472.14,0.214074074,-0.067407407,0,0,0,,0,168,168,398,1,,,,
,,,,,,f8d8455cf826f76fd9a75dee,66a626ef09d4e21e1a8894ec,6734e031a56e451743d067b2,2024-11-13_14h22.23.364,Tarea de género gramatical,2024.2.2,Win32,144.092219,,,,,,,,,,,,,,,,,,,,,,,472.14,473.478,l,1,0.682,,[],[],[],[],[],[],[],0.682,1,473.478,473.978,,,,,,893,MAS,DIS,150,templo,la,l,473.979,473.979,0.214074074,-0.067407407,0,0,0,,0,169,169,442,1,,,,
,,,,,,f8d8455cf826f76fd9a75dee,66a626ef09d4e21e1a8894ec,6734e031a56e451743d067b2,2024-11-13_14h22.23.364,Tarea de género gramatical,2024.2.2,Win32,144.092219,,,,,,,,,,,,,,,,,,,,,,,473.979,475.048,a,1,0.411,,[],[],[],[],[],[],[],0.411,1,475.048,475.548,,,,,,860,FEM,DIS,150,piedad,el,a,475.548,475.548,0.214074074,-0.067407407,0,0,0,,0,170,170,409,1,,,,
,,,,,,f8d8455cf826f76fd9a75dee,66a626ef09d4e21e1a8894ec,6734e031a56e451743d067b2,2024-11-13_14h22.23.364,Tarea de género gramatical,2024.2.2,Win32,144.092219,,,,,,,,,,,,,,,,,,,,,,,475.549,476.66,l,1,0.451,,[],[],[],[],[],[],[],0.451,1,476.66,477.159,,,,,,802,MAS,CON,150,estilo,,l,477.159,477.159,0.214074074,-0.067407407,0,0,0,,0,171,171,351,1,,,,
,,,,,,f8d8455cf826f76fd9a75dee,66a626ef09d4e21e1a8894ec,6734e031a56e451743d067b2,2024-11-13_14h22.23.364,Tarea de género gramatical,2024.2.2,Win32,144.092219,,,,,,,,,,,,,,,,,,,,,,,477.16,478.263,a,1,0.445,,[],[],[],[],[],[],[],0.445,1,478.264,478.763,,,,,,614,FEM,DIS,150,novia,el,a,478.763,478.764,0.214074074,-0.067407407,0,0,0,,0,172,172,163,1,,,,
,,,,,,f8d8455cf826f76fd9a75dee,66a626ef09d4e21e1a8894ec,6734e031a56e451743d067b2,2024-11-13_14h22.23.364,Tarea de género gramatical,2024.2.2,Win32,144.092219,,,,,,,,,,,,,,,,,,,,,,,478.764,479.798,a,0,0.377,,[],[],[],[],[],[],[],0.377,0,479.799,480.298,,,,,,539,MAS,DIS,150,maíz,la,l,480.298,480.299,0.214074074,-0.067407407,0,0,0,,0,173,173,88,1,,,,
,,,,,,f8d8455cf826f76fd9a75dee,66a626ef09d4e21e1a8894ec,6734e031a56e451743d067b2,2024-11-13_14h22.23.364,Tarea de género gramatical,2024.2.2,Win32,144.092219,,,,,,,,,,,,,,,,,,,,,,,480.3,481.367,a,1,0.412,,[],[],[],[],[],[],[],0.412,1,481.368,481.867,,,,,,463,FEM,CON,150,hija,,a,481.867,481.867,0.214074074,-0.067407407,0,0,0,,0,174,174,12,1,,,,
,,,,,,f8d8455cf826f76fd9a75dee,66a626ef09d4e21e1a8894ec,6734e031a56e451743d067b2,2024-11-13_14h22.23.364,Tarea de género gramatical,2024.2.2,Win32,144.092219,,,,,,,,,,,,,,,,,,,,,,,481.868,483.034,a,1,0.508,,[],[],[],[],[],[],[],0.508,1,483.034,483.535,,,,,,795,FEM,AGR,150,pierna,la,a,483.535,483.535,0.214074074,-0.067407407,0,0,0,,0,175,175,344,1,,,,
,,,,,,f8d8455cf826f76fd9a75dee,66a626ef09d4e21e1a8894ec,6734e031a56e451743d067b2,2024-11-13_14h22.23.364,Tarea de género gramatical,2024.2.2,Win32,144.092219,,,,,,,,,,,,,,,,,,,,,,,483.535,484.687,a,1,0.495,,[],[],[],[],[],[],[],0.495,1,484.687,485.187,,,,,,481,FEM,CON,150,edad,,a,485.187,485.187,0.214074074,-0.067407407,0,0,0,,0,176,176,30,1,,,,
,,,,,,f8d8455cf826f76fd9a75dee,66a626ef09d4e21e1a8894ec,6734e031a56e451743d067b2,2024-11-13_14h22.23.364,Tarea de género gramatical,2024.2.2,Win32,144.092219,,,,,,,,,,,,,,,,,,,,,,,485.187,486.638,a,1,0.793,,[],[],[],[],[],[],[],0.793,1,486.64,487.138,,,,,,884,FEM,DIS,150,corona,el,a,487.139,487.14,0.214074074,-0.067407407,0,0,0,,0,177,177,433,1,,,,
,,,,,,f8d8455cf826f76fd9a75dee,66a626ef09d4e21e1a8894ec,6734e031a56e451743d067b2,2024-11-13_14h22.23.364,Tarea de género gramatical,2024.2.2,Win32,144.092219,,,,,,,,,,,,,,,,,,,,,,,487.142,488.277,l,1,0.475,,[],[],[],[],[],[],[],0.475,1,488.277,488.778,,,,,,845,MAS,DIS,150,correo,la,l,488.778,488.778,0.214074074,-0.067407407,0,0,0,,0,178,178,394,1,,,,
,,,,,,f8d8455cf826f76fd9a75dee,66a626ef09d4e21e1a8894ec,6734e031a56e451743d067b2,2024-11-13_14h22.23.364,Tarea de género gramatical,2024.2.2,Win32,144.092219,,,,,,,,,,,,,,,,,,,,,,,488.779,489.847,a,1,0.413,,[],[],[],[],[],[],[],0.413,1,489.847,490.346,,,,,,513,FEM,AGR,150,fila,la,a,490.347,490.347,0.214074074,-0.067407407,0,0,0,,0,179,179,62,1,,,,
,,,,,,f8d8455cf826f76fd9a75dee,66a626ef09d4e21e1a8894ec,6734e031a56e451743d067b2,2024-11-13_14h22.23.364,Tarea de género gramatical,2024.2.2,Win32,144.092219,,,,,,,,,,,,,,,,,,,,,,,490.348,491.423,l,1,0.418,,[],[],[],[],[],[],[],0.418,1,491.423,491.924,,,,,,718,MAS,CON,150,truco,,l,491.924,491.924,0.214074074,-0.067407407,0,0,0,,0,180,180,267,1,,,,
,,,,,,f8d8455cf826f76fd9a75dee,66a626ef09d4e21e1a8894ec,6734e031a56e451743d067b2,2024-11-13_14h22.23.364,Tarea de género gramatical,2024.2.2,Win32,144.092219,,,,,,,,,,,,,,,,,,,,,,,491.925,493.062,l,1,0.482,,[],[],[],[],[],[],[],0.482,1,493.062,493.563,,,,,,826,MAS,CON,150,efecto,,l,493.563,493.563,0.214074074,-0.067407407,0,0,0,,0,181,181,375,1,,,,
,,,,,,f8d8455cf826f76fd9a75dee,66a626ef09d4e21e1a8894ec,6734e031a56e451743d067b2,2024-11-13_14h22.23.364,Tarea de género gramatical,2024.2.2,Win32,144.092219,,,,,,,,,,,,,,,,,,,,,,,493.564,494.632,l,1,0.412,,[],[],[],[],[],[],[],0.412,1,494.632,495.131,,,,,,472,MAS,CON,150,pelo,,l,495.133,495.133,0.214074074,-0.067407407,0,0,0,,0,182,182,21,1,,,,
,,,,,,f8d8455cf826f76fd9a75dee,66a626ef09d4e21e1a8894ec,6734e031a56e451743d067b2,2024-11-13_14h22.23.364,Tarea de género gramatical,2024.2.2,Win32,144.092219,,,,,,,,,,,,,,,,,,,,,,,495.133,496.423,l,1,0.634,,[],[],[],[],[],[],[],0.634,1,496.424,496.923,,,,,,803,MAS,DIS,150,verano,la,l,496.923,496.923,0.214074074,-0.067407407,0,0,0,,0,183,183,352,1,,,,
,,,,,,f8d8455cf826f76fd9a75dee,66a626ef09d4e21e1a8894ec,6734e031a56e451743d067b2,2024-11-13_14h22.23.364,Tarea de género gramatical,2024.2.2,Win32,144.092219,,,,,,,,,,,,,,,,,,,,,,,496.925,498.118,a,1,0.538,,[],[],[],[],[],[],[],0.538,1,498.118,498.618,,,,,,825,FEM,AGR,150,cadena,la,a,498.618,498.618,0.214074074,-0.067407407,0,0,0,,0,184,184,374,1,,,,
,,,,,,f8d8455cf826f76fd9a75dee,66a626ef09d4e21e1a8894ec,6734e031a56e451743d067b2,2024-11-13_14h22.23.364,Tarea de género gramatical,2024.2.2,Win32,144.092219,,,,,,,,,,,,,,,,,,,,,,,498.618,499.778,l,1,0.501,,[],[],[],[],[],[],[],0.501,1,499.778,500.277,,,,,,664,MAS,CON,150,fondo,,l,500.278,500.278,0.214074074,-0.067407407,0,0,0,,0,185,185,213,1,,,,
,,,,,,f8d8455cf826f76fd9a75dee,66a626ef09d4e21e1a8894ec,6734e031a56e451743d067b2,2024-11-13_14h22.23.364,Tarea de género gramatical,2024.2.2,Win32,144.092219,,,,,,,,,,,,,,,,,,,,,,,500.278,501.541,l,1,0.607,,[],[],[],[],[],[],[],0.607,1,501.541,502.042,,,,,,894,MAS,AGR,150,límite,el,l,502.043,502.044,0.214074074,-0.067407407,0,0,0,,0,186,186,443,1,,,,
,,,,,,f8d8455cf826f76fd9a75dee,66a626ef09d4e21e1a8894ec,6734e031a56e451743d067b2,2024-11-13_14h22.23.364,Tarea de género gramatical,2024.2.2,Win32,144.092219,,,,,,,,,,,,,,,,,,,,,,,502.044,503.083,a,1,0.374,,[],[],[],[],[],[],[],0.374,1,503.083,503.583,,,,,,529,FEM,CON,150,mina,,a,503.583,503.584,0.214074074,-0.067407407,0,0,0,,0,187,187,78,1,,,,
,,,,,,f8d8455cf826f76fd9a75dee,66a626ef09d4e21e1a8894ec,6734e031a56e451743d067b2,2024-11-13_14h22.23.364,Tarea de género gramatical,2024.2.2,Win32,144.092219,,,,,,,,,,,,,,,,,,,,,,,503.584,504.694,l,1,0.453,,[],[],[],[],[],[],[],0.453,1,504.695,505.194,,,,,,665,MAS,DIS,150,hueso,la,l,505.194,505.194,0.214074074,-0.067407407,0,0,0,,0,188,188,214,1,,,,
,,,,,,f8d8455cf826f76fd9a75dee,66a626ef09d4e21e1a8894ec,6734e031a56e451743d067b2,2024-11-13_14h22.23.364,Tarea de género gramatical,2024.2.2,Win32,144.092219,,,,,,,,,,,,,,,,,,,,,,,505.195,506.431,l,1,0.579,,[],[],[],[],[],[],[],0.579,1,506.431,506.93,,,,,,576,MAS,AGR,150,lazo,el,l,506.93,506.93,0.214074074,-0.067407407,0,0,0,,0,189,189,125,1,,,,
,,,,,,f8d8455cf826f76fd9a75dee,66a626ef09d4e21e1a8894ec,6734e031a56e451743d067b2,2024-11-13_14h22.23.364,Tarea de género gramatical,2024.2.2,Win32,144.092219,,,,,,,,,,,,,,,,,,,,,,,506.931,508.034,l,1,0.445,,[],[],[],[],[],[],[],0.445,1,508.035,508.534,,,,,,791,MAS,DIS,150,precio,la,l,508.534,508.535,0.214074074,-0.067407407,0,0,0,,0,190,190,340,1,,,,
,,,,,,f8d8455cf826f76fd9a75dee,66a626ef09d4e21e1a8894ec,6734e031a56e451743d067b2,2024-11-13_14h22.23.364,Tarea de género gramatical,2024.2.2,Win32,144.092219,,,,,,,,,,,,,,,,,,,,,,,508.535,509.59,a,1,0.398,,[],[],[],[],[],[],[],0.398,1,509.59,510.09,,,,,,781,FEM,CON,150,cárcel,,a,510.091,510.091,0.214074074,-0.067407407,0,0,0,,0,191,191,330,1,,,,
,,,,,,f8d8455cf826f76fd9a75dee,66a626ef09d4e21e1a8894ec,6734e031a56e451743d067b2,2024-11-13_14h22.23.364,Tarea de género gramatical,2024.2.2,Win32,144.092219,,,,,,,,,,,,,,,,,,,,,,,510.092,511.208,a,1,0.452,,[],[],[],[],[],[],[],0.452,1,511.208,511.708,,,,,,531,FEM,AGR,150,cima,la,a,511.708,511.709,0.214074074,-0.067407407,0,0,0,,0,192,192,80,1,,,,
,,,,,,f8d8455cf826f76fd9a75dee,66a626ef09d4e21e1a8894ec,6734e031a56e451743d067b2,2024-11-13_14h22.23.364,Tarea de género gramatical,2024.2.2,Win32,144.092219,,,,,,,,,,,,,,,,,,,,,,,511.709,512.806,a,1,0.441,,[],[],[],[],[],[],[],0.441,1,512.806,513.305,,,,,,525,FEM,AGR,150,caza,la,a,513.305,513.305,0.214074074,-0.067407407,0,0,0,,0,193,193,74,1,,,,
,,,,,,f8d8455cf826f76fd9a75dee,66a626ef09d4e21e1a8894ec,6734e031a56e451743d067b2,2024-11-13_14h22.23.364,Tarea de género gramatical,2024.2.2,Win32,144.092219,,,,,,,,,,,,,,,,,,,,,,,513.306,514.479,a,1,0.515,,[],[],[],[],[],[],[],0.515,1,514.48,514.979,,,,,,548,FEM,DIS,150,fuga,el,a,514.979,514.979,0.214074074,-0.067407407,0,0,0,,0,194,194,97,1,,,,
,,,,,,f8d8455cf826f76fd9a75dee,66a626ef09d4e21e1a8894ec,6734e031a56e451743d067b2,2024-11-13_14h22.23.364,Tarea de género gramatical,2024.2.2,Win32,144.092219,,,,,,,,,,,,,,,,,,,,,,,514.98,516.118,l,1,0.481,,[],[],[],[],[],[],[],0.481,1,516.118,516.618,,,,,,701,MAS,DIS,150,dueño,la,l,516.619,516.62,0.214074074,-0.067407407,0,0,0,,0,195,195,250,1,,,,
,,,,,,f8d8455cf826f76fd9a75dee,66a626ef09d4e21e1a8894ec,6734e031a56e451743d067b2,2024-11-13_14h22.23.364,Tarea de género gramatical,2024.2.2,Win32,144.092219,,,,,,,,,,,,,,,,,,,,,,,516.62,518.069,l,0,0.794,,[],[],[],[],[],[],[],0.794,0,518.07,518.57,,,,,,638,FEM,DIS,150,bomba,el,a,518.57,518.57,0.214074074,-0.067407407,0,0,0,,0,196,196,187,1,,,,
,,,,,,f8d8455cf826f76fd9a75dee,66a626ef09d4e21e1a8894ec,6734e031a56e451743d067b2,2024-11-13_14h22.23.364,Tarea de género gramatical,2024.2.2,Win32,144.092219,,,,,,,,,,,,,,,,,,,,,,,518.57,520.633,a,1,1.403,,[],[],[],[],[],[],[],1.403,1,520.634,521.132,,,,,,602,FEM,DIS,150,gente,el,a,521.132,521.132,0.214074074,-0.067407407,0,0,0,,0,197,197,151,1,,,,
,,,,,,f8d8455cf826f76fd9a75dee,66a626ef09d4e21e1a8894ec,6734e031a56e451743d067b2,2024-11-13_14h22.23.364,Tarea de género gramatical,2024.2.2,Win32,144.092219,,,,,,,,,,,,,,,,,,,,,,,521.134,522.458,l,1,0.668,,[],[],[],[],[],[],[],0.668,1,522.458,522.958,,,,,,810,MAS,AGR,150,puente,el,l,522.958,522.959,0.214074074,-0.067407407,0,0,0,,0,198,198,359,1,,,,
,,,,,,f8d8455cf826f76fd9a75dee,66a626ef09d4e21e1a8894ec,6734e031a56e451743d067b2,2024-11-13_14h22.23.364,Tarea de género gramatical,2024.2.2,Win32,144.092219,,,,,,,,,,,,,,,,,,,,,,,522.959,524.27,a,1,0.653,,[],[],[],[],[],[],[],0.653,1,524.271,524.771,,,,,,625,FEM,CON,150,señal,,a,524.771,524.771,0.214074074,-0.067407407,0,0,0,,0,199,199,174,1,,,,
,,,,,,f8d8455cf826f76fd9a75dee,66a626ef09d4e21e1a8894ec,6734e031a56e451743d067b2,2024-11-13_14h22.23.364,Tarea de género gramatical,2024.2.2,Win32,144.092219,,,,,,,,,,,,,,,,,,,,,,,524.772,525.958,l,1,0.53,,[],[],[],[],[],[],[],0.53,1,525.958,526.458,,,,,,563,MAS,DIS,150,toro,la,l,526.459,526.46,0.214074074,-0.067407407,0,0,0,,0,200,200,112,1,,,,
,,,,,,f8d8455cf826f76fd9a75dee,66a626ef09d4e21e1a8894ec,6734e031a56e451743d067b2,2024-11-13_14h22.23.364,Tarea de género gramatical,2024.2.2,Win32,144.092219,,,,,,,,,,,,,,,,,,,,,,,526.46,527.583,a,1,0.466,,[],[],[],[],[],[],[],0.466,1,527.584,528.084,,,,,,680,FEM,DIS,150,regla,el,a,528.084,528.084,0.214074074,-0.067407407,0,0,0,,0,201,201,229,1,,,,
,,,,,,f8d8455cf826f76fd9a75dee,66a626ef09d4e21e1a8894ec,6734e031a56e451743d067b2,2024-11-13_14h22.23.364,Tarea de género gramatical,2024.2.2,Win32,144.092219,,,,,,,,,,,,,,,,,,,,,,,528.085,529.25,l,1,0.508,,[],[],[],[],[],[],[],0.508,1,529.25,529.75,,,,,,838,MAS,CON,150,empleo,,l,529.75,529.75,0.214074074,-0.067407407,0,0,0,,0,202,202,387,1,,,,
,,,,,,f8d8455cf826f76fd9a75dee,66a626ef09d4e21e1a8894ec,6734e031a56e451743d067b2,2024-11-13_14h22.23.364,Tarea de género gramatical,2024.2.2,Win32,144.092219,,,,,,,,,,,,,,,,,,,,,,,529.75,530.952,l,1,0.543,,[],[],[],[],[],[],[],0.543,1,530.952,531.452,,,,,,816,MAS,AGR,150,riesgo,el,l,531.452,531.452,0.214074074,-0.067407407,0,0,0,,0,203,203,365,1,,,,
,,,,,,f8d8455cf826f76fd9a75dee,66a626ef09d4e21e1a8894ec,6734e031a56e451743d067b2,2024-11-13_14h22.23.364,Tarea de género gramatical,2024.2.2,Win32,144.092219,,,,,,,,,,,,,,,,,,,,,,,531.452,532.493,a,1,0.386,,[],[],[],[],[],[],[],0.386,1,532.494,532.993,,,,,,464,FEM,DIS,150,cara,el,a,532.993,532.995,0.214074074,-0.067407407,0,0,0,,0,204,204,13,1,,,,
,,,,,,f8d8455cf826f76fd9a75dee,66a626ef09d4e21e1a8894ec,6734e031a56e451743d067b2,2024-11-13_14h22.23.364,Tarea de género gramatical,2024.2.2,Win32,144.092219,,,,,,,,,,,,,,,,,,,,,,,532.995,534.097,a,1,0.444,,[],[],[],[],[],[],[],0.444,1,534.097,534.597,,,,,,567,FEM,AGR,150,raya,la,a,534.597,534.597,0.214074074,-0.067407407,0,0,0,,0,205,205,116,1,,,,
,,,,,,f8d8455cf826f76fd9a75dee,66a626ef09d4e21e1a8894ec,6734e031a56e451743d067b2,2024-11-13_14h22.23.364,Tarea de género gramatical,2024.2.2,Win32,144.092219,,,,,,,,,,,,,,,,,,,,,,,534.598,535.68,l,1,0.424,,[],[],[],[],[],[],[],0.424,1,535.68,536.181,,,,,,887,MAS,DIS,150,hombro,la,l,536.181,536.181,0.214074074,-0.067407407,0,0,0,,0,206,206,436,1,,,,
,,,,,,f8d8455cf826f76fd9a75dee,66a626ef09d4e21e1a8894ec,6734e031a56e451743d067b2,2024-11-13_14h22.23.364,Tarea de género gramatical,2024.2.2,Win32,144.092219,,,,,,,,,,,,,,,,,,,,,,,536.182,537.375,a,1,0.536,,[],[],[],[],[],[],[],0.536,1,537.375,537.875,,,,,,536,FEM,DIS,150,cruz,el,a,537.875,537.875,0.214074074,-0.067407407,0,0,0,,0,207,207,85,1,,,,
,,,,,,f8d8455cf826f76fd9a75dee,66a626ef09d4e21e1a8894ec,6734e031a56e451743d067b2,2024-11-13_14h22.23.364,Tarea de género gramatical,2024.2.2,Win32,144.092219,,,,,,,,,,,,,,,,,,,,,,,537.876,538.958,a,1,0.425,,[],[],[],[],[],[],[],0.425,1,538.958,539.459,,,,,,662,FEM,DIS,150,cinta,el,a,539.459,539.459,0.214074074,-0.067407407,0,0,0,,0,208,208,211,1,,,,
,,,,,,f8d8455cf826f76fd9a75dee,66a626ef09d4e21e1a8894ec,6734e031a56e451743d067b2,2024-11-13_14h22.23.364,Tarea de género gramatical,2024.2.2,Win32,144.092219,,,,,,,,,,,,,,,,,,,,,,,539.459,540.542,a,1,0.426,,[],[],[],[],[],[],[],0.426,1,540.543,541.042,,,,,,559,FEM,CON,150,gota,,a,541.043,541.043,0.214074074,-0.067407407,0,0,0,,0,209,209,108,1,,,,
,,,,,,f8d8455cf826f76fd9a75dee,66a626ef09d4e21e1a8894ec,6734e031a56e451743d067b2,2024-11-13_14h22.23.364,Tarea de género gramatical,2024.2.2,Win32,144.092219,,,,,,,,,,,,,,,,,,,,,,,541.043,542.097,l,1,0.397,,[],[],[],[],[],[],[],0.397,1,542.097,542.597,,,,,,497,MAS,DIS,150,olor,la,l,542.597,542.597,0.214074074,-0.067407407,0,0,0,,0,210,210,46,1,,,,
,,,,,,f8d8455cf826f76fd9a75dee,66a626ef09d4e21e1a8894ec,6734e031a56e451743d067b2,2024-11-13_14h22.23.364,Tarea de género gramatical,2024.2.2,Win32,144.092219,,,,,,,,,,,,,,,,,,,,,,,542.598,543.723,l,1,0.465,,[],[],[],[],[],[],[],0.465,1,543.723,544.222,,,,,,804,MAS,AGR,150,camión,el,l,544.222,544.222,0.214074074,-0.067407407,0,0,0,,0,211,211,353,1,,,,
,,,,,,f8d8455cf826f76fd9a75dee,66a626ef09d4e21e1a8894ec,6734e031a56e451743d067b2,2024-11-13_14h22.23.364,Tarea de género gramatical,2024.2.2,Win32,144.092219,,,,,,,,,,,,,,,,,,,,,,,544.223,545.278,l,1,0.397,,[],[],[],[],[],[],[],0.397,1,545.279,545.778,,,,,,712,MAS,CON,150,video,,l,545.778,545.778,0.214074074,-0.067407407,0,0,0,,0,212,212,261,1,,,,
,,,,,,f8d8455cf826f76fd9a75dee,66a626ef09d4e21e1a8894ec,6734e031a56e451743d067b2,2024-11-13_14h22.23.364,Tarea de género gramatical,2024.2.2,Win32,144.092219,,,,,,,,,,,,,,,,,,,,,,,545.778,546.812,l,1,0.379,,[],[],[],[],[],[],[],0.379,1,546.812,547.313,,,,,,748,MAS,CON,150,botón,,l,547.313,547.314,0.214074074,-0.067407407,0,0,0,,0,213,213,297,1,,,,
,,,,,,f8d8455cf826f76fd9a75dee,66a626ef09d4e21e1a8894ec,6734e031a56e451743d067b2,2024-11-13_14h22.23.364,Tarea de género gramatical,2024.2.2,Win32,144.092219,,,,,,,,,,,,,,,,,,,,,,,547.314,548.417,a,1,0.445,,[],[],[],[],[],[],[],0.445,1,548.417,548.917,,,,,,800,FEM,DIS,150,imagen,el,a,548.917,548.917,0.214074074,-0.067407407,0,0,0,,0,214,214,349,1,,,,
,,,,,,f8d8455cf826f76fd9a75dee,66a626ef09d4e21e1a8894ec,6734e031a56e451743d067b2,2024-11-13_14h22.23.364,Tarea de género gramatical,2024.2.2,Win32,144.092219,,,,,,,,,,,,,,,,,,,,,,,548.917,550.223,a,1,0.647,,[],[],[],[],[],[],[],0.647,1,550.223,550.722,,,,,,818,FEM,DIS,150,gracia,el,a,550.722,550.722,0.214074074,-0.067407407,0,0,0,,0,215,215,367,1,,,,
,,,,,,f8d8455cf826f76fd9a75dee,66a626ef09d4e21e1a8894ec,6734e031a56e451743d067b2,2024-11-13_14h22.23.364,Tarea de género gramatical,2024.2.2,Win32,144.092219,,,,,,,,,,,,,,,,,,,,,,,550.723,551.882,a,1,0.501,,[],[],[],[],[],[],[],0.501,1,551.882,552.382,,,,,,763,FEM,CON,150,ciudad,,a,552.382,552.382,0.214074074,-0.067407407,0,0,0,,0,216,216,312,1,,,,
,,,,,,f8d8455cf826f76fd9a75dee,66a626ef09d4e21e1a8894ec,6734e031a56e451743d067b2,2024-11-13_14h22.23.364,Tarea de género gramatical,2024.2.2,Win32,144.092219,,,,,,,,,,,,,,,,,,,,,,,552.383,553.55,l,1,0.509,,[],[],[],[],[],[],[],0.509,1,553.55,554.049,,,,,,714,MAS,AGR,150,pollo,el,l,554.049,554.049,0.214074074,-0.067407407,0,0,0,,0,217,217,263,1,,,,
,,,,,,f8d8455cf826f76fd9a75dee,66a626ef09d4e21e1a8894ec,6734e031a56e451743d067b2,2024-11-13_14h22.23.364,Tarea de género gramatical,2024.2.2,Win32,144.092219,,,,,,,,,,,,,,,,,,,,,,,554.051,555.126,l,1,0.418,,[],[],[],[],[],[],[],0.418,1,555.126,555.625,,,,,,552,MAS,AGR,150,coro,el,l,555.626,555.627,0.214074074,-0.067407407,0,0,0,,0,218,218,101,1,,,,
,,,,,,f8d8455cf826f76fd9a75dee,66a626ef09d4e21e1a8894ec,6734e031a56e451743d067b2,2024-11-13_14h22.23.364,Tarea de género gramatical,2024.2.2,Win32,144.092219,,,,,,,,,,,,,,,,,,,,,,,555.627,556.75,l,1,0.467,,[],[],[],[],[],[],[],0.467,1,556.75,557.251,,,,,,521,MAS,DIS,150,pozo,la,l,557.251,557.251,0.214074074,-0.067407407,0,0,0,,0,219,219,70,1,,,,
,,,,,,f8d8455cf826f76fd9a75dee,66a626ef09d4e21e1a8894ec,6734e031a56e451743d067b2,2024-11-13_14h22.23.364,Tarea de género gramatical,2024.2.2,Win32,144.092219,,,,,,,,,,,,,,,,,,,,,,,557.252,558.459,l,1,0.548,,[],[],[],[],[],[],[],0.548,1,558.459,558.959,,,,,,852,MAS,AGR,150,ladrón,el,l,558.959,558.959,0.214074074,-0.067407407,0,0,0,,0,220,220,401,1,,,,
,,,,,,f8d8455cf826f76fd9a75dee,66a626ef09d4e21e1a8894ec,6734e031a56e451743d067b2,2024-11-13_14h22.23.364,Tarea de género gramatical,2024.2.2,Win32,144.092219,,,,,,,,,,,,,,,,,,,,,,,558.96,560.035,l,1,0.416,,[],[],[],[],[],[],[],0.416,1,560.035,560.535,,,,,,546,MAS,AGR,150,pato,el,l,560.535,560.535,0.214074074,-0.067407407,0,0,0,,0,221,221,95,1,,,,
,,,,,,f8d8455cf826f76fd9a75dee,66a626ef09d4e21e1a8894ec,6734e031a56e451743d067b2,2024-11-13_14h22.23.364,Tarea de género gramatical,2024.2.2,Win32,144.092219,,,,,,,,,,,,,,,,,,,,,,,560.536,561.626,a,1,0.431,,[],[],[],[],[],[],[],0.431,1,561.626,562.125,,,,,,681,FEM,AGR,150,bruja,la,a,562.126,562.127,0.214074074,-0.067407407,0,0,0,,0,222,222,230,1,,,,
,,,,,,f8d8455cf826f76fd9a75dee,66a626ef09d4e21e1a8894ec,6734e031a56e451743d067b2,2024-11-13_14h22.23.364,Tarea de género gramatical,2024.2.2,Win32,144.092219,,,,,,,,,,,,,,,,,,,,,,,562.127,563.417,l,1,0.633,,[],[],[],[],[],[],[],0.633,1,563.417,563.917,,,,,,514,MAS,CON,150,saco,,l,563.918,563.918,0.214074074,-0.067407407,0,0,0,,0,223,223,63,1,,,,
,,,,,,f8d8455cf826f76fd9a75dee,66a626ef09d4e21e1a8894ec,6734e031a56e451743d067b2,2024-11-13_14h22.23.364,Tarea de género gramatical,2024.2.2,Win32,144.092219,,,,,,,,,,,,,,,,,,,,,,,563.918,565.049,l,1,0.472,,[],[],[],[],[],[],[],0.472,1,565.05,565.549,,,,,,647,MAS,DIS,150,avión,la,l,565.549,565.549,0.214074074,-0.067407407,0,0,0,,0,224,224,196,1,,,,
,,,,,,f8d8455cf826f76fd9a75dee,66a626ef09d4e21e1a8894ec,6734e031a56e451743d067b2,2024-11-13_14h22.23.364,Tarea de género gramatical,2024.2.2,Win32,144.092219,,,,,,,,,,,,,,,,,,,,,,,565.55,566.597,l,1,0.391,,[],[],[],[],[],[],[],0.391,1,566.598,567.098,,,,,,558,MAS,AGR,150,hilo,el,l,567.098,567.098,0.214074074,-0.067407407,0,0,0,,0,225,225,107,1,,,,
,,,,,,f8d8455cf826f76fd9a75dee,66a626ef09d4e21e1a8894ec,6734e031a56e451743d067b2,2024-11-13_14h22.23.364,Tarea de género gramatical,2024.2.2,Win32,144.092219,,,,,,,,,,,,,,,,,,,,,,,567.099,568.174,a,1,0.418,,[],[],[],[],[],[],[],0.418,1,568.174,568.674,,,,,,727,FEM,CON,150,plaza,,a,568.674,568.674,0.214074074,-0.067407407,0,0,0,,0,226,226,276,1,,,,
,,,,,,f8d8455cf826f76fd9a75dee,66a626ef09d4e21e1a8894ec,6734e031a56e451743d067b2,2024-11-13_14h22.23.364,Tarea de género gramatical,2024.2.2,Win32,144.092219,,,,,,,,,,,,,,,,,,,,,,,568.675,569.861,l,1,0.53,,[],[],[],[],[],[],[],0.53,1,569.862,570.362,,,,,,899,MAS,DIS,150,payaso,la,l,570.363,570.363,0.214074074,-0.067407407,0,0,0,,0,227,227,448,1,,,,
,,,,,,f8d8455cf826f76fd9a75dee,66a626ef09d4e21e1a8894ec,6734e031a56e451743d067b2,2024-11-13_14h22.23.364,Tarea de género gramatical,2024.2.2,Win32,144.092219,,,,,,,,,,,,,,,,,,,,,,,570.364,571.417,a,1,0.389,,[],[],[],[],[],[],[],0.389,1,571.417,571.918,,,,,,476,FEM,DIS,150,pena,el,a,571.918,571.918,0.214074074,-0.067407407,0,0,0,,0,228,228,25,1,,,,
,,,,,,f8d8455cf826f76fd9a75dee,66a626ef09d4e21e1a8894ec,6734e031a56e451743d067b2,2024-11-13_14h22.23.364,Tarea de género gramatical,2024.2.2,Win32,144.092219,,,,,,,,,,,,,,,,,,,,,,,571.918,573.133,a,1,0.558,,[],[],[],[],[],[],[],0.558,1,573.133,573.632,,,,,,811,FEM,CON,150,oferta,,a,573.632,573.632,0.214074074,-0.067407407,0,0,0,,0,229,229,360,1,,,,
,,,,,,f8d8455cf826f76fd9a75dee,66a626ef09d4e21e1a8894ec,6734e031a56e451743d067b2,2024-11-13_14h22.23.364,Tarea de género gramatical,2024.2.2,Win32,144.092219,,,,,,,,,,,,,,,,,,,,,,,573.633,574.779,l,1,0.488,,[],[],[],[],[],[],[],0.488,1,574.779,575.278,,,,,,840,MAS,AGR,150,rostro,el,l,575.278,575.278,0.214074074,-0.067407407,0,0,0,,0,230,230,389,1,,,,
,,,,,,f8d8455cf826f76fd9a75dee,66a626ef09d4e21e1a8894ec,6734e031a56e451743d067b2,2024-11-13_14h22.23.364,Tarea de género gramatical,2024.2.2,Win32,144.092219,,,,,,,,,,,,,,,,,,,,,,,575.279,576.417,l,1,0.478,,[],[],[],[],[],[],[],0.478,1,576.417,576.917,,,,,,520,MAS,CON,150,palo,,l,576.918,576.918,0.214074074,-0.067407407,0,0,0,,0,231,231,69,1,,,,
,,,,,,f8d8455cf826f76fd9a75dee,66a626ef09d4e21e1a8894ec,6734e031a56e451743d067b2,2024-11-13_14h22.23.364,Tarea de género gramatical,2024.2.2,Win32,144.092219,,,,,,,,,,,,,,,,,,,,,,,576.919,578.077,a,1,0.503,,[],[],[],[],[],[],[],0.503,1,578.077,578.577,,,,,,813,FEM,AGR,150,unidad,la,a,578.577,578.577,0.214074074,-0.067407407,0,0,0,,0,232,232,362,1,,,,
,,,,,,f8d8455cf826f76fd9a75dee,66a626ef09d4e21e1a8894ec,6734e031a56e451743d067b2,2024-11-13_14h22.23.364,Tarea de género gramatical,2024.2.2,Win32,144.092219,,,,,,,,,,,,,,,,,,,,,,,578.578,579.751,a,1,0.516,,[],[],[],[],[],[],[],0.516,1,579.751,580.251,,,,,,495,FEM,AGR,150,isla,la,a,580.251,580.251,0.214074074,-0.067407407,0,0,0,,0,233,233,44,1,,,,
,,,,,,f8d8455cf826f76fd9a75dee,66a626ef09d4e21e1a8894ec,6734e031a56e451743d067b2,2024-11-13_14h22.23.364,Tarea de género gramatical,2024.2.2,Win32,144.092219,,,,,,,,,,,,,,,,,,,,,,,580.252,581.299,a,1,0.389,,[],[],[],[],[],[],[],0.389,1,581.299,581.799,,,,,,523,FEM,CON,150,roca,,a,581.799,581.799,0.214074074,-0.067407407,0,0,0,,0,234,234,72,1,,,,
,,,,,,f8d8455cf826f76fd9a75dee,66a626ef09d4e21e1a8894ec,6734e031a56e451743d067b2,2024-11-13_14h22.23.364,Tarea de género gramatical,2024.2.2,Win32,144.092219,,,,,,,,,,,,,,,,,,,,,,,581.8,582.882,l,1,0.424,,[],[],[],[],[],[],[],0.424,1,582.883,583.383,,,,,,892,MAS,CON,150,cuadro,,l,583.383,583.383,0.214074074,-0.067407407,0,0,0,,0,235,235,441,1,,,,
,,,,,,f8d8455cf826f76fd9a75dee,66a626ef09d4e21e1a8894ec,6734e031a56e451743d067b2,2024-11-13_14h22.23.364,Tarea de género gramatical,2024.2.2,Win32,144.092219,,,,,,,,,,,,,,,,,,,,,,,583.383,584.487,l,1,0.445,,[],[],[],[],[],[],[],0.445,1,584.487,584.987,,,,,,862,MAS,CON,150,espejo,,l,584.988,584.988,0.214074074,-0.067407407,0,0,0,,0,236,236,411,1,,,,
,,,,,,f8d8455cf826f76fd9a75dee,66a626ef09d4e21e1a8894ec,6734e031a56e451743d067b2,2024-11-13_14h22.23.364,Tarea de género gramatical,2024.2.2,Win32,144.092219,,,,,,,,,,,,,,,,,,,,,,,584.989,586.016,a,1,0.37,,[],[],[],[],[],[],[],0.37,1,586.016,586.515,,,,,,817,FEM,CON,150,teoría,,a,586.515,586.515,0.214074074,-0.067407407,0,0,0,,0,237,237,366,1,,,,
,,,,,,f8d8455cf826f76fd9a75dee,66a626ef09d4e21e1a8894ec,6734e031a56e451743d067b2,2024-11-13_14h22.23.364,Tarea de género gramatical,2024.2.2,Win32,144.092219,,,,,,,,,,,,,,,,,,,,,,,586.517,587.807,l,1,0.634,,[],[],[],[],[],[],[],0.634,1,587.807,588.306,,,,,,898,MAS,CON,150,aceite,,l,588.306,588.306,0.214074074,-0.067407407,0,0,0,,0,238,238,447,1,,,,
,,,,,,f8d8455cf826f76fd9a75dee,66a626ef09d4e21e1a8894ec,6734e031a56e451743d067b2,2024-11-13_14h22.23.364,Tarea de género gramatical,2024.2.2,Win32,144.092219,,,,,,,,,,,,,,,,,,,,,,,588.307,589.786,a,1,0.82,,[],[],[],[],[],[],[],0.82,1,589.786,590.285,,,,,,741,FEM,AGR,150,aguja,la,a,590.285,590.286,0.214074074,-0.067407407,0,0,0,,0,239,239,290,1,,,,
,,,,,,f8d8455cf826f76fd9a75dee,66a626ef09d4e21e1a8894ec,6734e031a56e451743d067b2,2024-11-13_14h22.23.364,Tarea de género gramatical,2024.2.2,Win32,144.092219,,,,,,,,,,,,,,,,,,,,,,,590.287,591.376,l,1,0.432,,[],[],[],[],[],[],[],0.432,1,591.376,591.876,,,,,,706,MAS,CON,150,techo,,l,591.876,591.877,0.214074074,-0.067407407,0,0,0,,0,240,240,255,1,,,,
,,,,,,f8d8455cf826f76fd9a75dee,66a626ef09d4e21e1a8894ec,6734e031a56e451743d067b2,2024-11-13_14h22.23.364,Tarea de género gramatical,2024.2.2,Win32,144.092219,,,,,,,,,,,,,,,,,,,,,,,591.877,593.029,a,1,0.498,,[],[],[],[],[],[],[],0.498,1,593.029,593.529,,,,,,895,FEM,CON,150,bondad,,a,593.529,593.529,0.214074074,-0.067407407,0,0,0,,0,241,241,444,1,,,,
,,,,,,f8d8455cf826f76fd9a75dee,66a626ef09d4e21e1a8894ec,6734e031a56e451743d067b2,2024-11-13_14h22.23.364,Tarea de género gramatical,2024.2.2,Win32,144.092219,,,,,,,,,,,,,,,,,,,,,,,593.529,594.792,a,1,0.605,,[],[],[],[],[],[],[],0.605,1,594.792,595.292,,,,,,619,FEM,CON,150,vista,,a,595.293,595.293,0.214074074,-0.067407407,0,0,0,,0,242,242,168,1,,,,
,,,,,,f8d8455cf826f76fd9a75dee,66a626ef09d4e21e1a8894ec,6734e031a56e451743d067b2,2024-11-13_14h22.23.364,Tarea de género gramatical,2024.2.2,Win32,144.092219,,,,,,,,,,,,,,,,,,,,,,,595.293,596.355,a,1,0.402,,[],[],[],[],[],[],[],0.402,1,596.355,596.855,,,,,,848,FEM,DIS,150,hierba,el,a,596.855,596.855,0.214074074,-0.067407407,0,0,0,,0,243,243,397,1,,,,
,,,,,,f8d8455cf826f76fd9a75dee,66a626ef09d4e21e1a8894ec,6734e031a56e451743d067b2,2024-11-13_14h22.23.364,Tarea de género gramatical,2024.2.2,Win32,144.092219,,,,,,,,,,,,,,,,,,,,,,,596.855,597.945,l,1,0.431,,[],[],[],[],[],[],[],0.431,1,597.945,598.445,,,,,,666,MAS,AGR,150,éxito,el,l,598.445,598.445,0.214074074,-0.067407407,0,0,0,,0,244,244,215,1,,,,
,,,,,,f8d8455cf826f76fd9a75dee,66a626ef09d4e21e1a8894ec,6734e031a56e451743d067b2,2024-11-13_14h22.23.364,Tarea de género gramatical,2024.2.2,Win32,144.092219,,,,,,,,,,,,,,,,,,,,,,,598.446,599.501,a,1,0.4,,[],[],[],[],[],[],[],0.4,1,599.501,600.001,,,,,,577,FEM,CON,150,cuna,,a,600.001,600.002,0.214074074,-0.067407407,0,0,0,,0,245,245,126,1,,,,
,,,,,,f8d8455cf826f76fd9a75dee,66a626ef09d4e21e1a8894ec,6734e031a56e451743d067b2,2024-11-13_14h22.23.364,Tarea de género gramatical,2024.2.2,Win32,144.092219,,,,,,,,,,,,,,,,,,,,,,,600.002,601.106,a,1,0.445,,[],[],[],[],[],[],[],0.445,1,601.106,601.605,,,,,,469,FEM,CON,150,niña,,a,601.605,601.605,0.214074074,-0.067407407,0,0,0,,0,246,246,18,1,,,,
,,,,,,f8d8455cf826f76fd9a75dee,66a626ef09d4e21e1a8894ec,6734e031a56e451743d067b2,2024-11-13_14h22.23.364,Tarea de género gramatical,2024.2.2,Win32,144.092219,,,,,,,,,,,,,,,,,,,,,,,601.606,602.661,l,1,0.399,,[],[],[],[],[],[],[],0.399,1,602.661,603.16,,,,,,730,MAS,CON,150,salón,,l,603.16,603.161,0.214074074,-0.067407407,0,0,0,,0,247,247,279,1,,,,
,,,,,,f8d8455cf826f76fd9a75dee,66a626ef09d4e21e1a8894ec,6734e031a56e451743d067b2,2024-11-13_14h22.23.364,Tarea de género gramatical,2024.2.2,Win32,144.092219,,,,,,,,,,,,,,,,,,,,,,,603.162,604.202,a,1,0.383,,[],[],[],[],[],[],[],0.383,1,604.203,604.702,,,,,,549,FEM,AGR,150,fase,la,a,604.702,604.702,0.214074074,-0.067407407,0,0,0,,0,248,248,98,1,,,,
,,,,,,f8d8455cf826f76fd9a75dee,66a626ef09d4e21e1a8894ec,6734e031a56e451743d067b2,2024-11-13_14h22.23.364,Tarea de género gramatical,2024.2.2,Win32,144.092219,,,,,,,,,,,,,,,,,,,,,,,604.703,605.758,l,1,0.398,,[],[],[],[],[],[],[],0.398,1,605.758,606.258,,,,,,474,MAS,AGR,150,voto,el,l,606.258,606.259,0.214074074,-0.067407407,0,0,0,,0,249,249,23,1,,,,
,,,,,,f8d8455cf826f76fd9a75dee,66a626ef09d4e21e1a8894ec,6734e031a56e451743d067b2,2024-11-13_14h22.23.364,Tarea de género gramatical,2024.2.2,Win32,144.092219,,,,,,,,,,,,,,,,,,,,,,,606.259,607.376,l,1,0.459,,[],[],[],[],[],[],[],0.459,1,607.376,607.876,,,,,,778,MAS,CON,150,asunto,,l,607.876,607.876,0.214074074,-0.067407407,0,0,0,,0,250,250,327,1,,,,
,,,,,,f8d8455cf826f76fd9a75dee,66a626ef09d4e21e1a8894ec,6734e031a56e451743d067b2,2024-11-13_14h22.23.364,Tarea de género gramatical,2024.2.2,Win32,144.092219,,,,,,,,,,,,,,,,,,,,,,,607.876,608.918,a,1,0.383,,[],[],[],[],[],[],[],0.383,1,608.918,609.417,,,,,,745,FEM,CON,150,grasa,,a,609.417,609.417,0.214074074,-0.067407407,0,0,0,,0,251,251,294,1,,,,
,,,,,,f8d8455cf826f76fd9a75dee,66a626ef09d4e21e1a8894ec,6734e031a56e451743d067b2,2024-11-13_14h22.23.364,Tarea de género gramatical,2024.2.2,Win32,144.092219,,,,,,,,,,,,,,,,,,,,,,,609.418,610.557,a,1,0.483,,[],[],[],[],[],[],[],0.483,1,610.557,611.057,,,,,,717,FEM,AGR,150,barba,la,a,611.057,611.057,0.214074074,-0.067407407,0,0,0,,0,252,252,266,1,,,,
,,,,,,f8d8455cf826f76fd9a75dee,66a626ef09d4e21e1a8894ec,6734e031a56e451743d067b2,2024-11-13_14h22.23.364,Tarea de género gramatical,2024.2.2,Win32,144.092219,,,,,,,,,,,,,,,,,,,,,,,611.057,612.126,l,1,0.411,,[],[],[],[],[],[],[],0.411,1,612.126,612.626,,,,,,900,MAS,AGR,150,conejo,el,l,612.626,612.626,0.214074074,-0.067407407,0,0,0,,0,253,253,449,1,,,,
,,,,,,f8d8455cf826f76fd9a75dee,66a626ef09d4e21e1a8894ec,6734e031a56e451743d067b2,2024-11-13_14h22.23.364,Tarea de género gramatical,2024.2.2,Win32,144.092219,,,,,,,,,,,,,,,,,,,,,,,612.627,613.709,a,1,0.427,,[],[],[],[],[],[],[],0.427,1,613.709,614.209,,,,,,866,FEM,DIS,150,colina,el,a,614.209,614.211,0.214074074,-0.067407407,0,0,0,,0,254,254,415,1,,,,
,,,,,,f8d8455cf826f76fd9a75dee,66a626ef09d4e21e1a8894ec,6734e031a56e451743d067b2,2024-11-13_14h22.23.364,Tarea de género gramatical,2024.2.2,Win32,144.092219,,,,,,,,,,,,,,,,,,,,,,,614.211,615.446,a,1,0.58,,[],[],[],[],[],[],[],0.58,1,615.446,615.945,,,,,,793,FEM,CON,150,trampa,,a,615.945,615.945,0.214074074,-0.067407407,0,0,0,,0,255,255,342,1,,,,
,,,,,,f8d8455cf826f76fd9a75dee,66a626ef09d4e21e1a8894ec,6734e031a56e451743d067b2,2024-11-13_14h22.23.364,Tarea de género gramatical,2024.2.2,Win32,144.092219,,,,,,,,,,,,,,,,,,,,,,,615.946,617.028,a,1,0.427,,[],[],[],[],[],[],[],0.427,1,617.028,617.529,,,,,,661,FEM,CON,150,salud,,a,617.529,617.529,0.214074074,-0.067407407,0,0,0,,0,256,256,210,1,,,,
,,,,,,f8d8455cf826f76fd9a75dee,66a626ef09d4e21e1a8894ec,6734e031a56e451743d067b2,2024-11-13_14h22.23.364,Tarea de género gramatical,2024.2.2,Win32,144.092219,,,,,,,,,,,,,,,,,,,,,,,617.53,618.71,a,1,0.523,,[],[],[],[],[],[],[],0.523,1,618.71,619.209,,,,,,824,FEM,DIS,150,herida,el,a,619.209,619.209,0.214074074,-0.067407407,0,0,0,,0,257,257,373,1,,,,
,,,,,,f8d8455cf826f76fd9a75dee,66a626ef09d4e21e1a8894ec,6734e031a56e451743d067b2,2024-11-13_14h22.23.364,Tarea de género gramatical,2024.2.2,Win32,144.092219,,,,,,,,,,,,,,,,,,,,,,,619.21,620.362,l,1,0.494,,[],[],[],[],[],[],[],0.494,1,620.363,620.862,,,,,,792,MAS,AGR,150,abuelo,el,l,620.863,620.864,0.214074074,-0.067407407,0,0,0,,0,258,258,341,1,,,,
