counterbalancing_condition,consent_prescreening.block_1/declare_consent,consent_prescreening.block_1/age_years,consent_prescreening.block_1/gender,consent_prescreening.block_1/language_disorder,consent_prescreening.block_1/first_language,PROLIFIC_PID,STUDY_ID,SESSION_ID,date,expName,psychopyVersion,OS,frameRate,check_prescreening_answers.started,check_prescreening_answers.stopped,Instructions.started,Instructions.stopped,instr_done_keyboard.keys,instr_done_touch.x,instr_done_touch.y,instr_done_touch.leftButton,instr_done_touch.midButton,instr_done_touch.rightButton,instr_done_touch.clicked_name,instruction_pages.thisRepN,instruction_pages.thisTrialN,instruction_pages.thisN,instruction_pages.thisIndex,instruction_pages.ran,pageN,phase,instruct_text,has_image,instruct_image,instr_done_keyboard.rt,instr_done_keyboard.duration,presentTrial.started,presentTrial.stopped,response.keys,response.corr,touch_resp.x,touch_resp.y,touch_resp.leftButton,touch_resp.midButton,touch_resp.rightButton,touch_resp.time,touch_resp.clicked_name,rt,corr,feedback.started,feedback.stopped,practice_trials.thisRepN,practice_trials.thisTrialN,practice_trials.thisN,practice_trials.thisIndex,practice_trials.ran,TrialID,StimulusType,Condition,PrimeDuration,Prime,Flanker,corrAns,response.rt,response.duration,Break.started,Break.stopped,break_done_touch.x,break_done_touch.y,break_done_touch.leftButton,break_done_touch.midButton,break_done_touch.rightButton,break_done_keyboard.keys,experiment_trials.thisRepN,experiment_trials.thisTrialN,experiment_trials.thisN,experiment_trials.thisIndex,experiment_trials.ran,break_done_touch.clicked_name,End.started,End.stopped
2,"[""over_18"",""comfortable"",""read_info"",""consent_given""]",18,M,"[""none""]","[""spanish"",""english""]",fa14d2540c44d6a1c0861f96,66a626ef09d4e21e1a8894ec,67376810ed4bd524f10c8827,2024-11-15_09h37.52.434,Tarea de género gramatical,2024.2.2,Win32,60.97560976,,,,,,,,,,,,,,,,,,,,,,,,,,,,,,,,,,,,,,,,,,,,,,,,,,,,,,,,,,,,,,,,,,,,
,,,,,,fa14d2540c44d6a1c0861f96,66a626ef09d4e21e1a8894ec,67376810ed4bd524f10c8827,2024-11-15_09h37.52.434,Tarea de género gramatical,2024.2.2,Win32,60.97560976,22.7989,22.799,,,,,,,,,,,,,,,,,,,,,,,,,,,,,,,,,,,,,,,,,,,,,,,,,,,,,,,,,,,,,,,,,,
,,,,,,fa14d2540c44d6a1c0861f96,66a626ef09d4e21e1a8894ec,67376810ed4bd524f10c8827,2024-11-15_09h37.52.434,Tarea de género gramatical,2024.2.2,Win32,60.97560976,,,22.8302,2507.4687,,0.02407406,-0.388888889,1,0,0,instr_done_button,0,0,0,0,1,1,instructions,"INSTRUCCIONES
Va a realizar una prueba de selección gramatical. Desde el comienzo de la prueba mire siempre al centro de la pantalla. Al cabo de un momento, aparecerán palabras. La tarea consiste en determinar si la palabra del centro (siempre será un sustantivo), pertenece al género masculino o femenino.

Pulse la tecla ESPACIO o toque el botón de abajo para continuar.",0,keyboardresponseMF.png,,,,,,,,,,,,,,,,,,,,,,,,,,,,,,,,,,,,,,,,,,,,,,,
,,,,,,fa14d2540c44d6a1c0861f96,66a626ef09d4e21e1a8894ec,67376810ed4bd524f10c8827,2024-11-15_09h37.52.434,Tarea de género gramatical,2024.2.2,Win32,60.97560976,,,2507.4731,2515.4663,space,-0.015740712,-0.393518519,0,0,0,,0,1,1,1,1,2,instructions,"Si su dispositivo tiene teclado, pulse la tecla ""A"" para las palabras en masculino (por ejemplo: ""arroz"") y la tecla ""L"" para las palabras en femenino (por ejemplo: ""mano"").
Pulse la tecla ESPACIO o toque el botón de abajo para continuar.",1,keyboardresponseMF.png,7.9128,,,,,,,,,,,,,,,,,,,,,,,,,,,,,,,,,,,,,,,,,,,,,,
,,,,,,fa14d2540c44d6a1c0861f96,66a626ef09d4e21e1a8894ec,67376810ed4bd524f10c8827,2024-11-15_09h37.52.434,Tarea de género gramatical,2024.2.2,Win32,60.97560976,,,2515.4686,2516.9492,space,-0.015740712,-0.393518519,0,0,0,,0,2,2,2,1,3,instructions,"Si utiliza un dispositivo sólo táctil, colóquelo en horizontal y utilice los botones de la pantalla. No utilice el ratón.
Pulse la tecla ESPACIO o toque el botón de abajo para continuar.",2,touchresponseMF.png,1.4136,,,,,,,,,,,,,,,,,,,,,,,,,,,,,,,,,,,,,,,,,,,,,,
,,,,,,fa14d2540c44d6a1c0861f96,66a626ef09d4e21e1a8894ec,67376810ed4bd524f10c8827,2024-11-15_09h37.52.434,Tarea de género gramatical,2024.2.2,Win32,60.97560976,,,2516.9529,2520.4488,space,-0.015740712,-0.393518519,0,0,0,,0,3,3,3,1,4,instructions,"Es muy importante que responda con la mayor rapidez y precisión posibles, ya que cada cadena de letras sólo estará en pantalla durante un instante. Si no responde en ese tiempo, aparecerá el mensaje ""Muy lento"" y el experimento pasará a la siguiente palabra. Los primeros 15 intentos serán de práctica y habrá dos descansos durante la prueba.
Pulse la tecla ESPACIO o toque el botón de abajo para iniciar la parte de práctica.",0,keyboardresponseMF.png,3.4844,,,,,,,,,,,,,,,,,,,,,,,,,,,,,,,,,,,,,,,,,,,,,,
,,,,,,fa14d2540c44d6a1c0861f96,66a626ef09d4e21e1a8894ec,67376810ed4bd524f10c8827,2024-11-15_09h37.52.434,Tarea de género gramatical,2024.2.2,Win32,60.97560976,,,,,,,,,,,,,,,,,,,,,,,,2520.4938,2523.144,,0,[],[],[],[],[],[],[],,-1,2523.1444,2523.646,0,0,0,10,1,2011,MAS,CON,150,canal,,l,,,,,,,,,,,,,,,,,,
,,,,,,fa14d2540c44d6a1c0861f96,66a626ef09d4e21e1a8894ec,67376810ed4bd524f10c8827,2024-11-15_09h37.52.434,Tarea de género gramatical,2024.2.2,Win32,60.97560976,,,,,,,,,,,,,,,,,,,,,,,,2523.6488,2525.8953,a,1,[],[],[],[],[],[],[],1.5663,1,2525.9026,2526.3933,0,1,1,8,1,2009,MAS,DIS,150,puerto,la,l,1.5663,,,,,,,,,,,,,,,,,
,,,,,,fa14d2540c44d6a1c0861f96,66a626ef09d4e21e1a8894ec,67376810ed4bd524f10c8827,2024-11-15_09h37.52.434,Tarea de género gramatical,2024.2.2,Win32,60.97560976,,,,,,,,,,,,,,,,,,,,,,,,2526.3955,2527.5459,a,1,[],[],[],[],[],[],[],0.469,1,2527.546,2528.0409,0,2,2,13,1,2014,MAS,CON,150,siglo,,l,0.469,,,,,,,,,,,,,,,,,
,,,,,,fa14d2540c44d6a1c0861f96,66a626ef09d4e21e1a8894ec,67376810ed4bd524f10c8827,2024-11-15_09h37.52.434,Tarea de género gramatical,2024.2.2,Win32,60.97560976,,,,,,,,,,,,,,,,,,,,,,,,2528.0425,2529.3609,a,0,[],[],[],[],[],[],[],0.6645,0,2529.3622,2529.8601,0,3,3,5,1,2006,FEM,DIS,150,serie,el,a,0.6645,,,,,,,,,,,,,,,,,
,,,,,,fa14d2540c44d6a1c0861f96,66a626ef09d4e21e1a8894ec,67376810ed4bd524f10c8827,2024-11-15_09h37.52.434,Tarea de género gramatical,2024.2.2,Win32,60.97560976,,,,,,,,,,,,,,,,,,,,,,,,2529.8615,2532.5067,,0,[],[],[],[],[],[],[],0.6645,-1,2532.5079,2533.0066,0,4,4,0,1,2001,FEM,AGR,150,nuca,la,a,,,,,,,,,,,,,,,,,,
,,,,,,fa14d2540c44d6a1c0861f96,66a626ef09d4e21e1a8894ec,67376810ed4bd524f10c8827,2024-11-15_09h37.52.434,Tarea de género gramatical,2024.2.2,Win32,60.97560976,,,,,,,,,,,,,,,,,,,,,,,,2533.0082,2534.1094,l,1,[],[],[],[],[],[],[],0.4347,1,2534.1104,2534.6081,0,5,5,4,1,2005,FEM,CON,150,placa,,a,0.4347,,,,,,,,,,,,,,,,,
,,,,,,fa14d2540c44d6a1c0861f96,66a626ef09d4e21e1a8894ec,67376810ed4bd524f10c8827,2024-11-15_09h37.52.434,Tarea de género gramatical,2024.2.2,Win32,60.97560976,,,,,,,,,,,,,,,,,,,,,,,,2534.6099,2535.7591,l,1,[],[],[],[],[],[],[],0.4684,1,2535.7593,2536.2554,0,6,6,2,1,2003,FEM,DIS,150,daga,el,a,0.4684,,,,,,,,,,,,,,,,,
,,,,,,fa14d2540c44d6a1c0861f96,66a626ef09d4e21e1a8894ec,67376810ed4bd524f10c8827,2024-11-15_09h37.52.434,Tarea de género gramatical,2024.2.2,Win32,60.97560976,,,,,,,,,,,,,,,,,,,,,,,,2536.2573,2537.4876,a,1,[],[],[],[],[],[],[],0.576,1,2537.4877,2537.9873,0,7,7,14,1,2015,MAS,DIS,150,robot,la,l,0.576,,,,,,,,,,,,,,,,,
,,,,,,fa14d2540c44d6a1c0861f96,66a626ef09d4e21e1a8894ec,67376810ed4bd524f10c8827,2024-11-15_09h37.52.434,Tarea de género gramatical,2024.2.2,Win32,60.97560976,,,,,,,,,,,,,,,,,,,,,,,,2537.9891,2539.0537,l,0,[],[],[],[],[],[],[],0.3947,0,2539.0547,2539.5535,0,8,8,11,1,2012,MAS,DIS,150,clima,la,l,0.3947,,,,,,,,,,,,,,,,,
,,,,,,fa14d2540c44d6a1c0861f96,66a626ef09d4e21e1a8894ec,67376810ed4bd524f10c8827,2024-11-15_09h37.52.434,Tarea de género gramatical,2024.2.2,Win32,60.97560976,,,,,,,,,,,,,,,,,,,,,,,,2539.5554,2541.0742,a,1,[],[],[],[],[],[],[],0.8479,1,2541.0751,2541.5712,0,9,9,9,1,2010,MAS,AGR,150,vecino,el,l,0.8479,,,,,,,,,,,,,,,,,
,,,,,,fa14d2540c44d6a1c0861f96,66a626ef09d4e21e1a8894ec,67376810ed4bd524f10c8827,2024-11-15_09h37.52.434,Tarea de género gramatical,2024.2.2,Win32,60.97560976,,,,,,,,,,,,,,,,,,,,,,,,2541.5725,2543.1356,l,1,[],[],[],[],[],[],[],0.884,1,2543.1357,2543.6357,0,10,10,3,1,2004,FEM,AGR,150,venta,la,a,0.884,,,,,,,,,,,,,,,,,
,,,,,,fa14d2540c44d6a1c0861f96,66a626ef09d4e21e1a8894ec,67376810ed4bd524f10c8827,2024-11-15_09h37.52.434,Tarea de género gramatical,2024.2.2,Win32,60.97560976,,,,,,,,,,,,,,,,,,,,,,,,2543.6373,2544.8357,l,1,[],[],[],[],[],[],[],0.5289,1,2544.8359,2545.3356,0,11,11,6,1,2007,FEM,AGR,150,navaja,la,a,0.5289,,,,,,,,,,,,,,,,,
,,,,,,fa14d2540c44d6a1c0861f96,66a626ef09d4e21e1a8894ec,67376810ed4bd524f10c8827,2024-11-15_09h37.52.434,Tarea de género gramatical,2024.2.2,Win32,60.97560976,,,,,,,,,,,,,,,,,,,,,,,,2545.337,2546.6176,a,1,[],[],[],[],[],[],[],0.6019,1,2546.6177,2547.118,0,12,12,12,1,2013,MAS,AGR,150,acero,el,l,0.6019,,,,,,,,,,,,,,,,,
,,,,,,fa14d2540c44d6a1c0861f96,66a626ef09d4e21e1a8894ec,67376810ed4bd524f10c8827,2024-11-15_09h37.52.434,Tarea de género gramatical,2024.2.2,Win32,60.97560976,,,,,,,,,,,,,,,,,,,,,,,,2547.1193,2548.6508,l,1,[],[],[],[],[],[],[],0.8521,1,2548.651,2549.1514,0,13,13,7,1,2008,FEM,CON,150,siesta,,a,0.8521,,,,,,,,,,,,,,,,,
,,,,,,fa14d2540c44d6a1c0861f96,66a626ef09d4e21e1a8894ec,67376810ed4bd524f10c8827,2024-11-15_09h37.52.434,Tarea de género gramatical,2024.2.2,Win32,60.97560976,,,,,,,,,,,,,,,,,,,,,,,,2549.1528,2550.3332,l,1,[],[],[],[],[],[],[],0.5019,1,2550.3334,2550.8332,0,14,14,1,1,2002,FEM,CON,150,pala,,a,0.5019,,,,,,,,,,,,,,,,,
,,,,,,fa14d2540c44d6a1c0861f96,66a626ef09d4e21e1a8894ec,67376810ed4bd524f10c8827,2024-11-15_09h37.52.434,Tarea de género gramatical,2024.2.2,Win32,60.97560976,,,2554.7024,2558.1309,space,-0.015740712,-0.393518519,0,0,0,,,,,,,,,,,,3.4145,,2558.3129,2559.6137,a,1,[],[],[],[],[],[],[],0.6401,1,2559.6139,2560.1132,,,,,,906,MAS,CON,150,lado,,l,0.6401,,2560.1138,2560.119,-0.015740712,-0.393518519,0,0,0,,0,0,0,5,1,,,
,,,,,,fa14d2540c44d6a1c0861f96,66a626ef09d4e21e1a8894ec,67376810ed4bd524f10c8827,2024-11-15_09h37.52.434,Tarea de género gramatical,2024.2.2,Win32,60.97560976,,,,,,,,,,,,,,,,,,,,,,,,2560.1203,2561.1962,l,1,[],[],[],[],[],[],[],0.4058,1,2561.1966,2561.696,,,,,,1341,FEM,CON,150,medida,,a,0.4058,,2561.6962,2561.6964,-0.015740712,-0.393518519,0,0,0,,0,1,1,440,1,,,
,,,,,,fa14d2540c44d6a1c0861f96,66a626ef09d4e21e1a8894ec,67376810ed4bd524f10c8827,2024-11-15_09h37.52.434,Tarea de género gramatical,2024.2.2,Win32,60.97560976,,,,,,,,,,,,,,,,,,,,,,,,2561.6979,2562.8955,a,1,[],[],[],[],[],[],[],0.5175,1,2562.8957,2563.3956,,,,,,1127,MAS,AGR,150,vuelo,el,l,0.5175,,2563.3977,2563.3988,-0.015740712,-0.393518519,0,0,0,,0,2,2,226,1,,,
,,,,,,fa14d2540c44d6a1c0861f96,66a626ef09d4e21e1a8894ec,67376810ed4bd524f10c8827,2024-11-15_09h37.52.434,Tarea de género gramatical,2024.2.2,Win32,60.97560976,,,,,,,,,,,,,,,,,,,,,,,,2563.3999,2564.7616,a,1,[],[],[],[],[],[],[],0.6942,1,2564.7618,2565.2618,,,,,,1144,MAS,DIS,150,hielo,la,l,0.6942,,2565.2619,2565.2621,-0.015740712,-0.393518519,0,0,0,,0,3,3,243,1,,,
,,,,,,fa14d2540c44d6a1c0861f96,66a626ef09d4e21e1a8894ec,67376810ed4bd524f10c8827,2024-11-15_09h37.52.434,Tarea de género gramatical,2024.2.2,Win32,60.97560976,,,,,,,,,,,,,,,,,,,,,,,,2565.2636,2566.5115,a,1,[],[],[],[],[],[],[],0.5708,1,2566.5116,2567.0114,,,,,,1182,MAS,CON,150,bolso,,l,0.5708,,2567.0116,2567.0118,-0.015740712,-0.393518519,0,0,0,,0,4,4,281,1,,,
,,,,,,fa14d2540c44d6a1c0861f96,66a626ef09d4e21e1a8894ec,67376810ed4bd524f10c8827,2024-11-15_09h37.52.434,Tarea de género gramatical,2024.2.2,Win32,60.97560976,,,,,,,,,,,,,,,,,,,,,,,,2567.0139,2568.3129,a,1,[],[],[],[],[],[],[],0.6317,1,2568.313,2568.8102,,,,,,1330,MAS,DIS,150,título,la,l,0.6317,,2568.8102,2568.8106,-0.015740712,-0.393518519,0,0,0,,0,5,5,429,1,,,
,,,,,,fa14d2540c44d6a1c0861f96,66a626ef09d4e21e1a8894ec,67376810ed4bd524f10c8827,2024-11-15_09h37.52.434,Tarea de género gramatical,2024.2.2,Win32,60.97560976,,,,,,,,,,,,,,,,,,,,,,,,2568.8121,2569.9775,a,1,[],[],[],[],[],[],[],0.4923,1,2569.9778,2570.4762,,,,,,1234,MAS,DIS,150,ataque,la,l,0.4923,,2570.4786,2570.4796,-0.015740712,-0.393518519,0,0,0,,0,6,6,333,1,,,
,,,,,,fa14d2540c44d6a1c0861f96,66a626ef09d4e21e1a8894ec,67376810ed4bd524f10c8827,2024-11-15_09h37.52.434,Tarea de género gramatical,2024.2.2,Win32,60.97560976,,,,,,,,,,,,,,,,,,,,,,,,2570.4805,2571.776,l,1,[],[],[],[],[],[],[],0.6192,1,2571.7761,2572.2778,,,,,,1172,FEM,AGR,150,oreja,la,a,0.6192,,2572.278,2572.278,-0.015740712,-0.393518519,0,0,0,,0,7,7,271,1,,,
,,,,,,fa14d2540c44d6a1c0861f96,66a626ef09d4e21e1a8894ec,67376810ed4bd524f10c8827,2024-11-15_09h37.52.434,Tarea de género gramatical,2024.2.2,Win32,60.97560976,,,,,,,,,,,,,,,,,,,,,,,,2572.2797,2573.5089,l,1,[],[],[],[],[],[],[],0.5508,1,2573.5092,2574.0085,,,,,,1028,FEM,AGR,150,leña,la,a,0.5508,,2574.0087,2574.0088,-0.015740712,-0.393518519,0,0,0,,0,8,8,127,1,,,
,,,,,,fa14d2540c44d6a1c0861f96,66a626ef09d4e21e1a8894ec,67376810ed4bd524f10c8827,2024-11-15_09h37.52.434,Tarea de género gramatical,2024.2.2,Win32,60.97560976,,,,,,,,,,,,,,,,,,,,,,,,2574.0103,2575.4415,l,1,[],[],[],[],[],[],[],0.7636,1,2575.4418,2575.9411,,,,,,949,FEM,DIS,150,piel,el,a,0.7636,,2575.9412,2575.9414,-0.015740712,-0.393518519,0,0,0,,0,9,9,48,1,,,
,,,,,,fa14d2540c44d6a1c0861f96,66a626ef09d4e21e1a8894ec,67376810ed4bd524f10c8827,2024-11-15_09h37.52.434,Tarea de género gramatical,2024.2.2,Win32,60.97560976,,,,,,,,,,,,,,,,,,,,,,,,2575.943,2577.1573,l,1,[],[],[],[],[],[],[],0.5346,1,2577.1574,2577.6571,,,,,,1159,FEM,DIS,150,prima,el,a,0.5346,,2577.6572,2577.6575,-0.015740712,-0.393518519,0,0,0,,0,10,10,258,1,,,
,,,,,,fa14d2540c44d6a1c0861f96,66a626ef09d4e21e1a8894ec,67376810ed4bd524f10c8827,2024-11-15_09h37.52.434,Tarea de género gramatical,2024.2.2,Win32,60.97560976,,,,,,,,,,,,,,,,,,,,,,,,2577.6587,2578.7402,l,1,[],[],[],[],[],[],[],0.4023,1,2578.7403,2579.2399,,,,,,1010,FEM,AGR,150,rosa,la,a,0.4023,,2579.242,2579.2429,-0.015740712,-0.393518519,0,0,0,,0,11,11,109,1,,,
,,,,,,fa14d2540c44d6a1c0861f96,66a626ef09d4e21e1a8894ec,67376810ed4bd524f10c8827,2024-11-15_09h37.52.434,Tarea de género gramatical,2024.2.2,Win32,60.97560976,,,,,,,,,,,,,,,,,,,,,,,,2579.2437,2580.34,l,1,[],[],[],[],[],[],[],0.4238,1,2580.3401,2580.8393,,,,,,1267,FEM,DIS,150,teoría,el,a,0.4238,,2580.8395,2580.8397,-0.015740712,-0.393518519,0,0,0,,0,12,12,366,1,,,
,,,,,,fa14d2540c44d6a1c0861f96,66a626ef09d4e21e1a8894ec,67376810ed4bd524f10c8827,2024-11-15_09h37.52.434,Tarea de género gramatical,2024.2.2,Win32,60.97560976,,,,,,,,,,,,,,,,,,,,,,,,2580.8414,2581.9557,a,1,[],[],[],[],[],[],[],0.4435,1,2581.9559,2582.4556,,,,,,1252,MAS,DIS,150,estilo,la,l,0.4435,,2582.4557,2582.4559,-0.015740712,-0.393518519,0,0,0,,0,13,13,351,1,,,
,,,,,,fa14d2540c44d6a1c0861f96,66a626ef09d4e21e1a8894ec,67376810ed4bd524f10c8827,2024-11-15_09h37.52.434,Tarea de género gramatical,2024.2.2,Win32,60.97560976,,,,,,,,,,,,,,,,,,,,,,,,2582.4571,2583.655,a,1,[],[],[],[],[],[],[],0.5273,1,2583.6552,2584.1549,,,,,,1337,MAS,AGR,150,hombro,el,l,0.5273,,2584.155,2584.1553,-0.015740712,-0.393518519,0,0,0,,0,14,14,436,1,,,
,,,,,,fa14d2540c44d6a1c0861f96,66a626ef09d4e21e1a8894ec,67376810ed4bd524f10c8827,2024-11-15_09h37.52.434,Tarea de género gramatical,2024.2.2,Win32,60.97560976,,,,,,,,,,,,,,,,,,,,,,,,2584.157,2585.1878,a,1,[],[],[],[],[],[],[],0.3631,1,2585.188,2585.6879,,,,,,1302,MAS,CON,150,ladrón,,l,0.3631,,2585.6899,2585.6908,-0.015740712,-0.393518519,0,0,0,,0,15,15,401,1,,,
,,,,,,fa14d2540c44d6a1c0861f96,66a626ef09d4e21e1a8894ec,67376810ed4bd524f10c8827,2024-11-15_09h37.52.434,Tarea de género gramatical,2024.2.2,Win32,60.97560976,,,,,,,,,,,,,,,,,,,,,,,,2585.6917,2586.7708,a,1,[],[],[],[],[],[],[],0.4016,1,2586.7709,2587.2705,,,,,,1132,MAS,DIS,150,calor,la,l,0.4016,,2587.2707,2587.2708,-0.015740712,-0.393518519,0,0,0,,0,16,16,231,1,,,
,,,,,,fa14d2540c44d6a1c0861f96,66a626ef09d4e21e1a8894ec,67376810ed4bd524f10c8827,2024-11-15_09h37.52.434,Tarea de género gramatical,2024.2.2,Win32,60.97560976,,,,,,,,,,,,,,,,,,,,,,,,2587.2724,2588.3542,l,1,[],[],[],[],[],[],[],0.409,1,2588.3544,2588.8534,,,,,,1005,FEM,CON,150,jefa,,a,0.409,,2588.8535,2588.8536,-0.015740712,-0.393518519,0,0,0,,0,17,17,104,1,,,
,,,,,,fa14d2540c44d6a1c0861f96,66a626ef09d4e21e1a8894ec,67376810ed4bd524f10c8827,2024-11-15_09h37.52.434,Tarea de género gramatical,2024.2.2,Win32,60.97560976,,,,,,,,,,,,,,,,,,,,,,,,2588.8556,2589.9196,l,1,[],[],[],[],[],[],[],0.3868,1,2589.9198,2590.4206,,,,,,1173,FEM,CON,150,tarta,,a,0.3868,,2590.4206,2590.4207,-0.015740712,-0.393518519,0,0,0,,0,18,18,272,1,,,
,,,,,,fa14d2540c44d6a1c0861f96,66a626ef09d4e21e1a8894ec,67376810ed4bd524f10c8827,2024-11-15_09h37.52.434,Tarea de género gramatical,2024.2.2,Win32,60.97560976,,,,,,,,,,,,,,,,,,,,,,,,2590.4223,2591.4858,a,1,[],[],[],[],[],[],[],0.3833,1,2591.486,2591.9864,,,,,,1078,MAS,DIS,150,punto,la,l,0.3833,,2591.9866,2591.9867,-0.015740712,-0.393518519,0,0,0,,0,19,19,177,1,,,
,,,,,,fa14d2540c44d6a1c0861f96,66a626ef09d4e21e1a8894ec,67376810ed4bd524f10c8827,2024-11-15_09h37.52.434,Tarea de género gramatical,2024.2.2,Win32,60.97560976,,,,,,,,,,,,,,,,,,,,,,,,2591.9881,2593.0184,a,1,[],[],[],[],[],[],[],0.3628,1,2593.0186,2593.5184,,,,,,1265,MAS,AGR,150,código,el,l,0.3628,,2593.5205,2593.5214,-0.015740712,-0.393518519,0,0,0,,0,20,20,364,1,,,
,,,,,,fa14d2540c44d6a1c0861f96,66a626ef09d4e21e1a8894ec,67376810ed4bd524f10c8827,2024-11-15_09h37.52.434,Tarea de género gramatical,2024.2.2,Win32,60.97560976,,,,,,,,,,,,,,,,,,,,,,,,2593.5223,2594.7347,l,1,[],[],[],[],[],[],[],0.5358,1,2594.7348,2595.2345,,,,,,1268,FEM,AGR,150,gracia,la,a,0.5358,,2595.2347,2595.2348,-0.015740712,-0.393518519,0,0,0,,0,21,21,367,1,,,
,,,,,,fa14d2540c44d6a1c0861f96,66a626ef09d4e21e1a8894ec,67376810ed4bd524f10c8827,2024-11-15_09h37.52.434,Tarea de género gramatical,2024.2.2,Win32,60.97560976,,,,,,,,,,,,,,,,,,,,,,,,2595.2364,2596.3176,a,1,[],[],[],[],[],[],[],0.4022,1,2596.3177,2596.8177,,,,,,1006,MAS,DIS,150,test,la,l,0.4022,,2596.8177,2596.8179,-0.015740712,-0.393518519,0,0,0,,0,22,22,105,1,,,
,,,,,,fa14d2540c44d6a1c0861f96,66a626ef09d4e21e1a8894ec,67376810ed4bd524f10c8827,2024-11-15_09h37.52.434,Tarea de género gramatical,2024.2.2,Win32,60.97560976,,,,,,,,,,,,,,,,,,,,,,,,2596.8194,2597.9169,a,1,[],[],[],[],[],[],[],0.4165,1,2597.9171,2598.4177,,,,,,1050,MAS,CON,150,mozo,,l,0.4165,,2598.4178,2598.4179,-0.015740712,-0.393518519,0,0,0,,0,23,23,149,1,,,
,,,,,,fa14d2540c44d6a1c0861f96,66a626ef09d4e21e1a8894ec,67376810ed4bd524f10c8827,2024-11-15_09h37.52.434,Tarea de género gramatical,2024.2.2,Win32,60.97560976,,,,,,,,,,,,,,,,,,,,,,,,2598.4194,2599.5172,l,1,[],[],[],[],[],[],[],0.427,1,2599.5174,2600.0161,,,,,,979,FEM,DIS,150,mina,el,a,0.427,,2600.0183,2600.0193,-0.015740712,-0.393518519,0,0,0,,0,24,24,78,1,,,
,,,,,,fa14d2540c44d6a1c0861f96,66a626ef09d4e21e1a8894ec,67376810ed4bd524f10c8827,2024-11-15_09h37.52.434,Tarea de género gramatical,2024.2.2,Win32,60.97560976,,,,,,,,,,,,,,,,,,,,,,,,2600.02,2601.1327,a,1,[],[],[],[],[],[],[],0.4345,1,2601.1328,2601.6323,,,,,,978,MAS,CON,150,oído,,l,0.4345,,2601.6325,2601.6327,-0.015740712,-0.393518519,0,0,0,,0,25,25,77,1,,,
,,,,,,fa14d2540c44d6a1c0861f96,66a626ef09d4e21e1a8894ec,67376810ed4bd524f10c8827,2024-11-15_09h37.52.434,Tarea de género gramatical,2024.2.2,Win32,60.97560976,,,,,,,,,,,,,,,,,,,,,,,,2601.6345,2602.7321,l,1,[],[],[],[],[],[],[],0.4259,1,2602.7322,2603.2323,,,,,,1309,FEM,DIS,150,moneda,el,a,0.4259,,2603.2323,2603.2324,-0.015740712,-0.393518519,0,0,0,,0,26,26,408,1,,,
,,,,,,fa14d2540c44d6a1c0861f96,66a626ef09d4e21e1a8894ec,67376810ed4bd524f10c8827,2024-11-15_09h37.52.434,Tarea de género gramatical,2024.2.2,Win32,60.97560976,,,,,,,,,,,,,,,,,,,,,,,,2603.2338,2604.4154,l,1,[],[],[],[],[],[],[],0.5081,1,2604.4155,2604.9152,,,,,,907,FEM,DIS,150,hora,el,a,0.5081,,2604.9152,2604.9154,-0.015740712,-0.393518519,0,0,0,,0,27,27,6,1,,,
,,,,,,fa14d2540c44d6a1c0861f96,66a626ef09d4e21e1a8894ec,67376810ed4bd524f10c8827,2024-11-15_09h37.52.434,Tarea de género gramatical,2024.2.2,Win32,60.97560976,,,,,,,,,,,,,,,,,,,,,,,,2604.9171,2606.0143,l,1,[],[],[],[],[],[],[],0.4268,1,2606.0145,2606.5146,,,,,,1273,FEM,DIS,150,lluvia,el,a,0.4268,,2606.5148,2606.5149,-0.015740712,-0.393518519,0,0,0,,0,28,28,372,1,,,
,,,,,,fa14d2540c44d6a1c0861f96,66a626ef09d4e21e1a8894ec,67376810ed4bd524f10c8827,2024-11-15_09h37.52.434,Tarea de género gramatical,2024.2.2,Win32,60.97560976,,,,,,,,,,,,,,,,,,,,,,,,2606.5165,2607.7472,a,1,[],[],[],[],[],[],[],0.5511,1,2607.7473,2608.2468,,,,,,994,MAS,DIS,150,cabo,la,l,0.5511,,2608.2489,2608.2498,-0.015740712,-0.393518519,0,0,0,,0,29,29,93,1,,,
,,,,,,fa14d2540c44d6a1c0861f96,66a626ef09d4e21e1a8894ec,67376810ed4bd524f10c8827,2024-11-15_09h37.52.434,Tarea de género gramatical,2024.2.2,Win32,60.97560976,,,,,,,,,,,,,,,,,,,,,,,,2608.2508,2609.5297,l,1,[],[],[],[],[],[],[],0.6006,1,2609.5299,2610.0295,,,,,,1094,FEM,AGR,150,banda,la,a,0.6006,,2610.0296,2610.0298,-0.015740712,-0.393518519,0,0,0,,0,30,30,193,1,,,
,,,,,,fa14d2540c44d6a1c0861f96,66a626ef09d4e21e1a8894ec,67376810ed4bd524f10c8827,2024-11-15_09h37.52.434,Tarea de género gramatical,2024.2.2,Win32,60.97560976,,,,,,,,,,,,,,,,,,,,,,,,2610.0312,2611.1457,l,1,[],[],[],[],[],[],[],0.4366,1,2611.146,2611.6456,,,,,,956,FEM,AGR,150,bola,la,a,0.4366,,2611.6457,2611.6459,-0.015740712,-0.393518519,0,0,0,,0,31,31,55,1,,,
,,,,,,fa14d2540c44d6a1c0861f96,66a626ef09d4e21e1a8894ec,67376810ed4bd524f10c8827,2024-11-15_09h37.52.434,Tarea de género gramatical,2024.2.2,Win32,60.97560976,,,,,,,,,,,,,,,,,,,,,,,,2611.6472,2612.7119,l,1,[],[],[],[],[],[],[],0.3841,1,2612.7121,2613.2125,,,,,,920,FEM,AGR,150,ropa,la,a,0.3841,,2613.2126,2613.2128,-0.015740712,-0.393518519,0,0,0,,0,32,32,19,1,,,
,,,,,,fa14d2540c44d6a1c0861f96,66a626ef09d4e21e1a8894ec,67376810ed4bd524f10c8827,2024-11-15_09h37.52.434,Tarea de género gramatical,2024.2.2,Win32,60.97560976,,,,,,,,,,,,,,,,,,,,,,,,2613.2141,2614.3453,a,0,[],[],[],[],[],[],[],0.4642,0,2614.3466,2614.8444,,,,,,999,FEM,CON,150,fase,,a,0.4642,,2614.8465,2614.8479,-0.015740712,-0.393518519,0,0,0,,0,33,33,98,1,,,
,,,,,,fa14d2540c44d6a1c0861f96,66a626ef09d4e21e1a8894ec,67376810ed4bd524f10c8827,2024-11-15_09h37.52.434,Tarea de género gramatical,2024.2.2,Win32,60.97560976,,,,,,,,,,,,,,,,,,,,,,,,2614.8487,2616.2614,l,1,[],[],[],[],[],[],[],0.7382,1,2616.2627,2616.7613,,,,,,1165,FEM,DIS,150,rueda,el,a,0.7382,,2616.7614,2616.7617,-0.015740712,-0.393518519,0,0,0,,0,34,34,264,1,,,
,,,,,,fa14d2540c44d6a1c0861f96,66a626ef09d4e21e1a8894ec,67376810ed4bd524f10c8827,2024-11-15_09h37.52.434,Tarea de género gramatical,2024.2.2,Win32,60.97560976,,,,,,,,,,,,,,,,,,,,,,,,2616.7631,2618.2105,a,1,[],[],[],[],[],[],[],0.7782,1,2618.2105,2618.7102,,,,,,1056,MAS,CON,150,amigo,,l,0.7782,,2618.7102,2618.7106,-0.015740712,-0.393518519,0,0,0,,0,35,35,155,1,,,
,,,,,,fa14d2540c44d6a1c0861f96,66a626ef09d4e21e1a8894ec,67376810ed4bd524f10c8827,2024-11-15_09h37.52.434,Tarea de género gramatical,2024.2.2,Win32,60.97560976,,,,,,,,,,,,,,,,,,,,,,,,2618.712,2620.426,l,1,[],[],[],[],[],[],[],1.0412,1,2620.426,2620.9258,,,,,,985,FEM,DIS,150,gira,el,a,1.0412,,2620.9259,2620.9261,-0.015740712,-0.393518519,0,0,0,,0,36,36,84,1,,,
,,,,,,fa14d2540c44d6a1c0861f96,66a626ef09d4e21e1a8894ec,67376810ed4bd524f10c8827,2024-11-15_09h37.52.434,Tarea de género gramatical,2024.2.2,Win32,60.97560976,,,,,,,,,,,,,,,,,,,,,,,,2620.9275,2622.076,a,1,[],[],[],[],[],[],[],0.4715,1,2622.0762,2622.5762,,,,,,924,MAS,CON,150,voto,,l,0.4715,,2622.5762,2622.5764,-0.015740712,-0.393518519,0,0,0,,0,37,37,23,1,,,
,,,,,,fa14d2540c44d6a1c0861f96,66a626ef09d4e21e1a8894ec,67376810ed4bd524f10c8827,2024-11-15_09h37.52.434,Tarea de género gramatical,2024.2.2,Win32,60.97560976,,,,,,,,,,,,,,,,,,,,,,,,2622.5778,2624.3917,l,0,[],[],[],[],[],[],[],1.1349,0,2624.3931,2624.8911,,,,,,1266,MAS,CON,150,riesgo,,l,1.1349,,2624.8931,2624.894,-0.015740712,-0.393518519,0,0,0,,0,38,38,365,1,,,
,,,,,,fa14d2540c44d6a1c0861f96,66a626ef09d4e21e1a8894ec,67376810ed4bd524f10c8827,2024-11-15_09h37.52.434,Tarea de género gramatical,2024.2.2,Win32,60.97560976,,,,,,,,,,,,,,,,,,,,,,,,2624.8948,2626.1407,a,1,[],[],[],[],[],[],[],0.5761,1,2626.142,2626.6405,,,,,,1272,MAS,CON,150,delito,,l,0.5761,,2626.6406,2626.6408,-0.015740712,-0.393518519,0,0,0,,0,39,39,371,1,,,
,,,,,,fa14d2540c44d6a1c0861f96,66a626ef09d4e21e1a8894ec,67376810ed4bd524f10c8827,2024-11-15_09h37.52.434,Tarea de género gramatical,2024.2.2,Win32,60.97560976,,,,,,,,,,,,,,,,,,,,,,,,2626.6422,2627.7902,l,1,[],[],[],[],[],[],[],0.4685,1,2627.7904,2628.2899,,,,,,1093,FEM,DIS,150,bolsa,el,a,0.4685,,2628.2899,2628.2901,-0.015740712,-0.393518519,0,0,0,,0,40,40,192,1,,,
,,,,,,fa14d2540c44d6a1c0861f96,66a626ef09d4e21e1a8894ec,67376810ed4bd524f10c8827,2024-11-15_09h37.52.434,Tarea de género gramatical,2024.2.2,Win32,60.97560976,,,,,,,,,,,,,,,,,,,,,,,,2628.2917,2629.6896,a,1,[],[],[],[],[],[],[],0.7233,1,2629.6897,2630.1893,,,,,,1012,MAS,DIS,150,reto,la,l,0.7233,,2630.1893,2630.1895,-0.015740712,-0.393518519,0,0,0,,0,41,41,111,1,,,
,,,,,,fa14d2540c44d6a1c0861f96,66a626ef09d4e21e1a8894ec,67376810ed4bd524f10c8827,2024-11-15_09h37.52.434,Tarea de género gramatical,2024.2.2,Win32,60.97560976,,,,,,,,,,,,,,,,,,,,,,,,2630.191,2631.4888,a,1,[],[],[],[],[],[],[],0.618,1,2631.4891,2631.9888,,,,,,948,MAS,CON,150,loco,,l,0.618,,2631.9906,2631.9916,-0.015740712,-0.393518519,0,0,0,,0,42,42,47,1,,,
,,,,,,fa14d2540c44d6a1c0861f96,66a626ef09d4e21e1a8894ec,67376810ed4bd524f10c8827,2024-11-15_09h37.52.434,Tarea de género gramatical,2024.2.2,Win32,60.97560976,,,,,,,,,,,,,,,,,,,,,,,,2631.9926,2633.5051,l,1,[],[],[],[],[],[],[],0.841,1,2633.5053,2634.0047,,,,,,1232,FEM,AGR,150,basura,la,a,0.841,,2634.0049,2634.005,-0.015740712,-0.393518519,0,0,0,,0,43,43,331,1,,,
,,,,,,fa14d2540c44d6a1c0861f96,66a626ef09d4e21e1a8894ec,67376810ed4bd524f10c8827,2024-11-15_09h37.52.434,Tarea de género gramatical,2024.2.2,Win32,60.97560976,,,,,,,,,,,,,,,,,,,,,,,,2634.0063,2635.371,l,1,[],[],[],[],[],[],[],0.6841,1,2635.3712,2635.8706,,,,,,1269,FEM,CON,150,camisa,,a,0.6841,,2635.8707,2635.8709,-0.015740712,-0.393518519,0,0,0,,0,44,44,368,1,,,
,,,,,,fa14d2540c44d6a1c0861f96,66a626ef09d4e21e1a8894ec,67376810ed4bd524f10c8827,2024-11-15_09h37.52.434,Tarea de género gramatical,2024.2.2,Win32,60.97560976,,,,,,,,,,,,,,,,,,,,,,,,2635.8723,2637.7702,l,1,[],[],[],[],[],[],[],1.2183,1,2637.7705,2638.2699,,,,,,925,FEM,DIS,150,nave,el,a,1.2183,,2638.27,2638.2701,-0.015740712,-0.393518519,0,0,0,,0,45,45,24,1,,,
,,,,,,fa14d2540c44d6a1c0861f96,66a626ef09d4e21e1a8894ec,67376810ed4bd524f10c8827,2024-11-15_09h37.52.434,Tarea de género gramatical,2024.2.2,Win32,60.97560976,,,,,,,,,,,,,,,,,,,,,,,,2638.2717,2639.4862,l,1,[],[],[],[],[],[],[],0.5366,1,2639.4863,2639.9859,,,,,,1083,FEM,CON,150,llave,,a,0.5366,,2639.9861,2639.9861,-0.015740712,-0.393518519,0,0,0,,0,46,46,182,1,,,
,,,,,,fa14d2540c44d6a1c0861f96,66a626ef09d4e21e1a8894ec,67376810ed4bd524f10c8827,2024-11-15_09h37.52.434,Tarea de género gramatical,2024.2.2,Win32,60.97560976,,,,,,,,,,,,,,,,,,,,,,,,2639.9881,2641.2689,l,1,[],[],[],[],[],[],[],0.6073,1,2641.2691,2641.7687,,,,,,1033,FEM,DIS,150,joya,el,a,0.6073,,2641.7704,2641.7713,-0.015740712,-0.393518519,0,0,0,,0,47,47,132,1,,,
,,,,,,fa14d2540c44d6a1c0861f96,66a626ef09d4e21e1a8894ec,67376810ed4bd524f10c8827,2024-11-15_09h37.52.434,Tarea de género gramatical,2024.2.2,Win32,60.97560976,,,,,,,,,,,,,,,,,,,,,,,,2641.7721,2642.9016,l,1,[],[],[],[],[],[],[],0.4511,1,2642.9017,2643.4016,,,,,,1035,FEM,CON,150,raíz,,a,0.4511,,2643.4016,2643.4018,-0.015740712,-0.393518519,0,0,0,,0,48,48,134,1,,,
,,,,,,fa14d2540c44d6a1c0861f96,66a626ef09d4e21e1a8894ec,67376810ed4bd524f10c8827,2024-11-15_09h37.52.434,Tarea de género gramatical,2024.2.2,Win32,60.97560976,,,,,,,,,,,,,,,,,,,,,,,,2643.4031,2644.7011,a,1,[],[],[],[],[],[],[],0.6223,1,2644.7012,2645.2011,,,,,,928,MAS,DIS,150,club,la,l,0.6223,,2645.2013,2645.2014,-0.015740712,-0.393518519,0,0,0,,0,49,49,27,1,,,
,,,,,,fa14d2540c44d6a1c0861f96,66a626ef09d4e21e1a8894ec,67376810ed4bd524f10c8827,2024-11-15_09h37.52.434,Tarea de género gramatical,2024.2.2,Win32,60.97560976,,,,,,,,,,,,,,,,,,,,,,,,2645.2031,2646.6338,l,1,[],[],[],[],[],[],[],0.7574,1,2646.6339,2647.1336,,,,,,1155,FEM,CON,150,tribu,,a,0.7574,,2647.1338,2647.1339,-0.015740712,-0.393518519,0,0,0,,0,50,50,254,1,,,
,,,,,,fa14d2540c44d6a1c0861f96,66a626ef09d4e21e1a8894ec,67376810ed4bd524f10c8827,2024-11-15_09h37.52.434,Tarea de género gramatical,2024.2.2,Win32,60.97560976,,,,,,,,,,,,,,,,,,,,,,,,2647.1352,2648.2511,a,1,[],[],[],[],[],[],[],0.4478,1,2648.2512,2648.7504,,,,,,1110,MAS,CON,150,baile,,l,0.4478,,2648.752,2648.7529,-0.015740712,-0.393518519,0,0,0,,0,51,51,209,1,,,
,,,,,,fa14d2540c44d6a1c0861f96,66a626ef09d4e21e1a8894ec,67376810ed4bd524f10c8827,2024-11-15_09h37.52.434,Tarea de género gramatical,2024.2.2,Win32,60.97560976,,,,,,,,,,,,,,,,,,,,,,,,2648.7537,2649.9832,a,1,[],[],[],[],[],[],[],0.5637,1,2649.9833,2650.4831,,,,,,1242,MAS,CON,150,abuelo,,l,0.5637,,2650.4833,2650.4835,-0.015740712,-0.393518519,0,0,0,,0,52,52,341,1,,,
,,,,,,fa14d2540c44d6a1c0861f96,66a626ef09d4e21e1a8894ec,67376810ed4bd524f10c8827,2024-11-15_09h37.52.434,Tarea de género gramatical,2024.2.2,Win32,60.97560976,,,,,,,,,,,,,,,,,,,,,,,,2650.4849,2651.5986,l,1,[],[],[],[],[],[],[],0.442,1,2651.5987,2652.0985,,,,,,1214,FEM,AGR,150,señora,la,a,0.442,,2652.0986,2652.0988,-0.015740712,-0.393518519,0,0,0,,0,53,53,313,1,,,
,,,,,,fa14d2540c44d6a1c0861f96,66a626ef09d4e21e1a8894ec,67376810ed4bd524f10c8827,2024-11-15_09h37.52.434,Tarea de género gramatical,2024.2.2,Win32,60.97560976,,,,,,,,,,,,,,,,,,,,,,,,2652.1001,2653.2993,a,1,[],[],[],[],[],[],[],0.5299,1,2653.2994,2653.798,,,,,,960,MAS,CON,150,tono,,l,0.5299,,2653.7981,2653.7983,-0.015740712,-0.393518519,0,0,0,,0,54,54,59,1,,,
,,,,,,fa14d2540c44d6a1c0861f96,66a626ef09d4e21e1a8894ec,67376810ed4bd524f10c8827,2024-11-15_09h37.52.434,Tarea de género gramatical,2024.2.2,Win32,60.97560976,,,,,,,,,,,,,,,,,,,,,,,,2653.7998,2655.1979,l,1,[],[],[],[],[],[],[],0.7264,1,2655.198,2655.6973,,,,,,1118,FEM,AGR,150,nieve,la,a,0.7264,,2655.6975,2655.6977,-0.015740712,-0.393518519,0,0,0,,0,55,55,217,1,,,
,,,,,,fa14d2540c44d6a1c0861f96,66a626ef09d4e21e1a8894ec,67376810ed4bd524f10c8827,2024-11-15_09h37.52.434,Tarea de género gramatical,2024.2.2,Win32,60.97560976,,,,,,,,,,,,,,,,,,,,,,,,2655.6994,2656.8637,a,1,[],[],[],[],[],[],[],0.4888,1,2656.8639,2657.3635,,,,,,1121,MAS,AGR,150,brazo,el,l,0.4888,,2657.365,2657.3659,-0.015740712,-0.393518519,0,0,0,,0,56,56,220,1,,,
,,,,,,fa14d2540c44d6a1c0861f96,66a626ef09d4e21e1a8894ec,67376810ed4bd524f10c8827,2024-11-15_09h37.52.434,Tarea de género gramatical,2024.2.2,Win32,60.97560976,,,,,,,,,,,,,,,,,,,,,,,,2657.3667,2658.7131,a,1,[],[],[],[],[],[],[],0.6728,1,2658.7133,2659.2128,,,,,,947,MAS,AGR,150,olor,el,l,0.6728,,2659.2129,2659.213,-0.015740712,-0.393518519,0,0,0,,0,57,57,46,1,,,
,,,,,,fa14d2540c44d6a1c0861f96,66a626ef09d4e21e1a8894ec,67376810ed4bd524f10c8827,2024-11-15_09h37.52.434,Tarea de género gramatical,2024.2.2,Win32,60.97560976,,,,,,,,,,,,,,,,,,,,,,,,2659.2142,2660.379,a,1,[],[],[],[],[],[],[],0.4958,1,2660.3792,2660.879,,,,,,1054,MAS,DIS,150,padre,la,l,0.4958,,2660.8792,2660.8793,-0.015740712,-0.393518519,0,0,0,,0,58,58,153,1,,,
,,,,,,fa14d2540c44d6a1c0861f96,66a626ef09d4e21e1a8894ec,67376810ed4bd524f10c8827,2024-11-15_09h37.52.434,Tarea de género gramatical,2024.2.2,Win32,60.97560976,,,,,,,,,,,,,,,,,,,,,,,,2660.8806,2661.979,a,1,[],[],[],[],[],[],[],0.4203,1,2661.9792,2662.4783,,,,,,1248,MAS,CON,150,anillo,,l,0.4203,,2662.4784,2662.4785,-0.015740712,-0.393518519,0,0,0,,0,59,59,347,1,,,
,,,,,,fa14d2540c44d6a1c0861f96,66a626ef09d4e21e1a8894ec,67376810ed4bd524f10c8827,2024-11-15_09h37.52.434,Tarea de género gramatical,2024.2.2,Win32,60.97560976,,,,,,,,,,,,,,,,,,,,,,,,2662.4798,2663.5946,a,1,[],[],[],[],[],[],[],0.4349,1,2663.5947,2664.0946,,,,,,1152,MAS,CON,150,viejo,,l,0.4349,,2664.0963,2664.0973,-0.015740712,-0.393518519,0,0,0,,0,60,60,251,1,,,
,,,,,,fa14d2540c44d6a1c0861f96,66a626ef09d4e21e1a8894ec,67376810ed4bd524f10c8827,2024-11-15_09h37.52.434,Tarea de género gramatical,2024.2.2,Win32,60.97560976,,,,,,,,,,,,,,,,,,,,,,,,2664.0982,2665.1782,l,1,[],[],[],[],[],[],[],0.4059,1,2665.1784,2665.6774,,,,,,1143,FEM,CON,150,salsa,,a,0.4059,,2665.6775,2665.6777,-0.015740712,-0.393518519,0,0,0,,0,61,61,242,1,,,
,,,,,,fa14d2540c44d6a1c0861f96,66a626ef09d4e21e1a8894ec,67376810ed4bd524f10c8827,2024-11-15_09h37.52.434,Tarea de género gramatical,2024.2.2,Win32,60.97560976,,,,,,,,,,,,,,,,,,,,,,,,2665.6791,2666.8601,a,1,[],[],[],[],[],[],[],0.5008,1,2666.8603,2667.36,,,,,,1187,MAS,AGR,150,plato,el,l,0.5008,,2667.3601,2667.3603,-0.015740712,-0.393518519,0,0,0,,0,62,62,286,1,,,
,,,,,,fa14d2540c44d6a1c0861f96,66a626ef09d4e21e1a8894ec,67376810ed4bd524f10c8827,2024-11-15_09h37.52.434,Tarea de género gramatical,2024.2.2,Win32,60.97560976,,,,,,,,,,,,,,,,,,,,,,,,2667.3618,2668.6762,l,1,[],[],[],[],[],[],[],0.6424,1,2668.6764,2669.1759,,,,,,1346,FEM,AGR,150,bañera,la,a,0.6424,,2669.176,2669.1762,-0.015740712,-0.393518519,0,0,0,,0,63,63,445,1,,,
,,,,,,fa14d2540c44d6a1c0861f96,66a626ef09d4e21e1a8894ec,67376810ed4bd524f10c8827,2024-11-15_09h37.52.434,Tarea de género gramatical,2024.2.2,Win32,60.97560976,,,,,,,,,,,,,,,,,,,,,,,,2669.1774,2670.2768,a,1,[],[],[],[],[],[],[],0.4157,1,2670.277,2670.7759,,,,,,984,MAS,CON,150,mago,,l,0.4157,,2670.776,2670.7762,-0.015740712,-0.393518519,0,0,0,,0,64,64,83,1,,,
,,,,,,fa14d2540c44d6a1c0861f96,66a626ef09d4e21e1a8894ec,67376810ed4bd524f10c8827,2024-11-15_09h37.52.434,Tarea de género gramatical,2024.2.2,Win32,60.97560976,,,,,,,,,,,,,,,,,,,,,,,,2670.7781,2672.3255,l,0,[],[],[],[],[],[],[],0.8791,0,2672.3263,2672.8249,,,,,,1031,MAS,AGR,150,kilo,el,l,0.8791,,2672.8265,2672.8277,-0.015740712,-0.393518519,0,0,0,,0,65,65,130,1,,,
,,,,,,fa14d2540c44d6a1c0861f96,66a626ef09d4e21e1a8894ec,67376810ed4bd524f10c8827,2024-11-15_09h37.52.434,Tarea de género gramatical,2024.2.2,Win32,60.97560976,,,,,,,,,,,,,,,,,,,,,,,,2672.8289,2674.0079,a,1,[],[],[],[],[],[],[],0.5039,1,2674.0088,2674.5077,,,,,,1079,MAS,AGR,150,viaje,el,l,0.5039,,2674.5078,2674.5079,-0.015740712,-0.393518519,0,0,0,,0,66,66,178,1,,,
,,,,,,fa14d2540c44d6a1c0861f96,66a626ef09d4e21e1a8894ec,67376810ed4bd524f10c8827,2024-11-15_09h37.52.434,Tarea de género gramatical,2024.2.2,Win32,60.97560976,,,,,,,,,,,,,,,,,,,,,,,,2674.5095,2677.1567,,0,[],[],[],[],[],[],[],0.5039,-1,2677.1582,2677.6567,,,,,,1237,FEM,DIS,150,escena,el,a,,,2677.6568,2677.6569,-0.015740712,-0.393518519,0,0,0,,0,67,67,336,1,,,
,,,,,,fa14d2540c44d6a1c0861f96,66a626ef09d4e21e1a8894ec,67376810ed4bd524f10c8827,2024-11-15_09h37.52.434,Tarea de género gramatical,2024.2.2,Win32,60.97560976,,,,,,,,,,,,,,,,,,,,,,,,2677.6585,2679.0907,a,1,[],[],[],[],[],[],[],0.764,1,2679.0916,2679.5899,,,,,,1096,MAS,DIS,150,barco,la,l,0.764,,2679.59,2679.5902,-0.015740712,-0.393518519,0,0,0,,0,68,68,195,1,,,
,,,,,,fa14d2540c44d6a1c0861f96,66a626ef09d4e21e1a8894ec,67376810ed4bd524f10c8827,2024-11-15_09h37.52.434,Tarea de género gramatical,2024.2.2,Win32,60.97560976,,,,,,,,,,,,,,,,,,,,,,,,2679.592,2680.8555,l,1,[],[],[],[],[],[],[],0.5859,1,2680.8557,2681.3552,,,,,,1135,FEM,DIS,150,torre,el,a,0.5859,,2681.357,2681.3578,-0.015740712,-0.393518519,0,0,0,,0,69,69,234,1,,,
,,,,,,fa14d2540c44d6a1c0861f96,66a626ef09d4e21e1a8894ec,67376810ed4bd524f10c8827,2024-11-15_09h37.52.434,Tarea de género gramatical,2024.2.2,Win32,60.97560976,,,,,,,,,,,,,,,,,,,,,,,,2681.3587,2682.7048,l,1,[],[],[],[],[],[],[],0.6689,1,2682.7051,2683.2049,,,,,,1166,FEM,AGR,150,jaula,la,a,0.6689,,2683.2052,2683.2054,-0.015740712,-0.393518519,0,0,0,,0,70,70,265,1,,,
,,,,,,fa14d2540c44d6a1c0861f96,66a626ef09d4e21e1a8894ec,67376810ed4bd524f10c8827,2024-11-15_09h37.52.434,Tarea de género gramatical,2024.2.2,Win32,60.97560976,,,,,,,,,,,,,,,,,,,,,,,,2683.2069,2684.9708,l,1,[],[],[],[],[],[],[],1.0885,1,2684.9709,2685.4706,,,,,,1051,FEM,DIS,150,noche,el,a,1.0885,,2685.4707,2685.4709,-0.015740712,-0.393518519,0,0,0,,0,71,71,150,1,,,
,,,,,,fa14d2540c44d6a1c0861f96,66a626ef09d4e21e1a8894ec,67376810ed4bd524f10c8827,2024-11-15_09h37.52.434,Tarea de género gramatical,2024.2.2,Win32,60.97560976,,,,,,,,,,,,,,,,,,,,,,,,2685.4722,2686.6539,l,1,[],[],[],[],[],[],[],0.5035,1,2686.6541,2687.1534,,,,,,1195,FEM,DIS,150,grasa,el,a,0.5035,,2687.1534,2687.1536,-0.015740712,-0.393518519,0,0,0,,0,72,72,294,1,,,
,,,,,,fa14d2540c44d6a1c0861f96,66a626ef09d4e21e1a8894ec,67376810ed4bd524f10c8827,2024-11-15_09h37.52.434,Tarea de género gramatical,2024.2.2,Win32,60.97560976,,,,,,,,,,,,,,,,,,,,,,,,2687.155,2688.2365,l,1,[],[],[],[],[],[],[],0.406,1,2688.2367,2688.7361,,,,,,1299,FEM,CON,150,charla,,a,0.406,,2688.7361,2688.7363,-0.015740712,-0.393518519,0,0,0,,0,73,73,398,1,,,
,,,,,,fa14d2540c44d6a1c0861f96,66a626ef09d4e21e1a8894ec,67376810ed4bd524f10c8827,2024-11-15_09h37.52.434,Tarea de género gramatical,2024.2.2,Win32,60.97560976,,,,,,,,,,,,,,,,,,,,,,,,2688.7376,2689.8198,l,1,[],[],[],[],[],[],[],0.4016,1,2689.8199,2690.319,,,,,,1303,FEM,DIS,150,paliza,el,a,0.4016,,2690.3208,2690.3216,-0.015740712,-0.393518519,0,0,0,,0,74,74,402,1,,,
,,,,,,fa14d2540c44d6a1c0861f96,66a626ef09d4e21e1a8894ec,67376810ed4bd524f10c8827,2024-11-15_09h37.52.434,Tarea de género gramatical,2024.2.2,Win32,60.97560976,,,,,,,,,,,,,,,,,,,,,,,,2690.3224,2691.6518,a,1,[],[],[],[],[],[],[],0.659,1,2691.6518,2692.1517,,,,,,1241,MAS,AGR,150,precio,el,l,0.659,,2692.1518,2692.1519,-0.015740712,-0.393518519,0,0,0,,0,75,75,340,1,,,
,,,,,,fa14d2540c44d6a1c0861f96,66a626ef09d4e21e1a8894ec,67376810ed4bd524f10c8827,2024-11-15_09h37.52.434,Tarea de género gramatical,2024.2.2,Win32,60.97560976,,,,,,,,,,,,,,,,,,,,,,,,2692.1533,2693.218,a,1,[],[],[],[],[],[],[],0.3876,1,2693.2181,2693.7178,,,,,,1108,MAS,DIS,150,suelo,la,l,0.3876,,2693.7179,2693.718,-0.015740712,-0.393518519,0,0,0,,0,76,76,207,1,,,
,,,,,,fa14d2540c44d6a1c0861f96,66a626ef09d4e21e1a8894ec,67376810ed4bd524f10c8827,2024-11-15_09h37.52.434,Tarea de género gramatical,2024.2.2,Win32,60.97560976,,,,,,,,,,,,,,,,,,,,,,,,2693.7195,2694.8174,a,1,[],[],[],[],[],[],[],0.4235,1,2694.8176,2695.3173,,,,,,1163,MAS,AGR,150,carro,el,l,0.4235,,2695.3174,2695.3175,-0.015740712,-0.393518519,0,0,0,,0,77,77,262,1,,,
,,,,,,fa14d2540c44d6a1c0861f96,66a626ef09d4e21e1a8894ec,67376810ed4bd524f10c8827,2024-11-15_09h37.52.434,Tarea de género gramatical,2024.2.2,Win32,60.97560976,,,,,,,,,,,,,,,,,,,,,,,,2695.3189,2696.4668,l,1,[],[],[],[],[],[],[],0.4701,1,2696.4669,2696.9666,,,,,,1041,FEM,CON,150,cera,,a,0.4701,,2696.9683,2696.9691,-0.015740712,-0.393518519,0,0,0,,0,78,78,140,1,,,
,,,,,,fa14d2540c44d6a1c0861f96,66a626ef09d4e21e1a8894ec,67376810ed4bd524f10c8827,2024-11-15_09h37.52.434,Tarea de género gramatical,2024.2.2,Win32,60.97560976,,,,,,,,,,,,,,,,,,,,,,,,2696.9701,2698.4168,a,1,[],[],[],[],[],[],[],0.7739,1,2698.4169,2698.9159,,,,,,923,MAS,AGR,150,rato,el,l,0.7739,,2698.916,2698.9162,-0.015740712,-0.393518519,0,0,0,,0,79,79,22,1,,,
,,,,,,fa14d2540c44d6a1c0861f96,66a626ef09d4e21e1a8894ec,67376810ed4bd524f10c8827,2024-11-15_09h37.52.434,Tarea de género gramatical,2024.2.2,Win32,60.97560976,,,,,,,,,,,,,,,,,,,,,,,,2698.9175,2700.3994,l,1,[],[],[],[],[],[],[],0.8033,1,2700.3996,2700.899,,,,,,974,FEM,AGR,150,flor,la,a,0.8033,,2700.8991,2700.8992,-0.015740712,-0.393518519,0,0,0,,0,80,80,73,1,,,
,,,,,,fa14d2540c44d6a1c0861f96,66a626ef09d4e21e1a8894ec,67376810ed4bd524f10c8827,2024-11-15_09h37.52.434,Tarea de género gramatical,2024.2.2,Win32,60.97560976,,,,,,,,,,,,,,,,,,,,,,,,2700.9005,2702.6981,a,0,[],[],[],[],[],[],[],1.1236,0,2702.6992,2703.1979,,,,,,927,FEM,CON,150,mesa,,a,1.1236,,2703.198,2703.1982,-0.015740712,-0.393518519,0,0,0,,0,81,81,26,1,,,
,,,,,,fa14d2540c44d6a1c0861f96,66a626ef09d4e21e1a8894ec,67376810ed4bd524f10c8827,2024-11-15_09h37.52.434,Tarea de género gramatical,2024.2.2,Win32,60.97560976,,,,,,,,,,,,,,,,,,,,,,,,2703.1996,2704.7475,l,1,[],[],[],[],[],[],[],0.8705,1,2704.7487,2705.2471,,,,,,1339,FEM,DIS,150,toalla,el,a,0.8705,,2705.2472,2705.2475,-0.015740712,-0.393518519,0,0,0,,0,82,82,438,1,,,
,,,,,,fa14d2540c44d6a1c0861f96,66a626ef09d4e21e1a8894ec,67376810ed4bd524f10c8827,2024-11-15_09h37.52.434,Tarea de género gramatical,2024.2.2,Win32,60.97560976,,,,,,,,,,,,,,,,,,,,,,,,2705.249,2707.0799,l,1,[],[],[],[],[],[],[],1.1517,1,2707.0801,2707.5797,,,,,,1111,FEM,DIS,150,salud,el,a,1.1517,,2707.5813,2707.5822,-0.015740712,-0.393518519,0,0,0,,0,83,83,210,1,,,
,,,,,,fa14d2540c44d6a1c0861f96,66a626ef09d4e21e1a8894ec,67376810ed4bd524f10c8827,2024-11-15_09h37.52.434,Tarea de género gramatical,2024.2.2,Win32,60.97560976,,,,,,,,,,,,,,,,,,,,,,,,2707.5829,2708.9293,l,1,[],[],[],[],[],[],[],0.6736,1,2708.9294,2709.4299,,,,,,1148,FEM,AGR,150,letra,la,a,0.6736,,2709.43,2709.4301,-0.015740712,-0.393518519,0,0,0,,0,84,84,247,1,,,
,,,,,,fa14d2540c44d6a1c0861f96,66a626ef09d4e21e1a8894ec,67376810ed4bd524f10c8827,2024-11-15_09h37.52.434,Tarea de género gramatical,2024.2.2,Win32,60.97560976,,,,,,,,,,,,,,,,,,,,,,,,2709.4317,2710.8786,a,1,[],[],[],[],[],[],[],0.7701,1,2710.8788,2711.3784,,,,,,1336,MAS,DIS,150,objeto,la,l,0.7701,,2711.3786,2711.3788,-0.015740712,-0.393518519,0,0,0,,0,85,85,435,1,,,
,,,,,,fa14d2540c44d6a1c0861f96,66a626ef09d4e21e1a8894ec,67376810ed4bd524f10c8827,2024-11-15_09h37.52.434,Tarea de género gramatical,2024.2.2,Win32,60.97560976,,,,,,,,,,,,,,,,,,,,,,,,2711.3802,2712.5613,a,0,[],[],[],[],[],[],[],0.5077,0,2712.5626,2713.0615,,,,,,963,FEM,CON,150,fila,,a,0.5077,,2713.0616,2713.0616,-0.015740712,-0.393518519,0,0,0,,0,86,86,62,1,,,
,,,,,,fa14d2540c44d6a1c0861f96,66a626ef09d4e21e1a8894ec,67376810ed4bd524f10c8827,2024-11-15_09h37.52.434,Tarea de género gramatical,2024.2.2,Win32,60.97560976,,,,,,,,,,,,,,,,,,,,,,,,2713.0633,2714.1109,a,1,[],[],[],[],[],[],[],0.377,1,2714.112,2714.6107,,,,,,1175,MAS,AGR,150,disco,el,l,0.377,,2714.6123,2714.6131,-0.015740712,-0.393518519,0,0,0,,0,87,87,274,1,,,
,,,,,,fa14d2540c44d6a1c0861f96,66a626ef09d4e21e1a8894ec,67376810ed4bd524f10c8827,2024-11-15_09h37.52.434,Tarea de género gramatical,2024.2.2,Win32,60.97560976,,,,,,,,,,,,,,,,,,,,,,,,2714.6139,2715.6935,a,1,[],[],[],[],[],[],[],0.4111,1,2715.6937,2716.1935,,,,,,1176,MAS,CON,150,ritmo,,l,0.4111,,2716.1935,2716.1938,-0.015740712,-0.393518519,0,0,0,,0,88,88,275,1,,,
,,,,,,fa14d2540c44d6a1c0861f96,66a626ef09d4e21e1a8894ec,67376810ed4bd524f10c8827,2024-11-15_09h37.52.434,Tarea de género gramatical,2024.2.2,Win32,60.97560976,,,,,,,,,,,,,,,,,,,,,,,,2716.1955,2717.2931,l,1,[],[],[],[],[],[],[],0.4212,1,2717.2934,2717.7929,,,,,,1183,FEM,DIS,150,pluma,el,a,0.4212,,2717.7929,2717.7932,-0.015740712,-0.393518519,0,0,0,,0,89,89,282,1,,,
,,,,,,fa14d2540c44d6a1c0861f96,66a626ef09d4e21e1a8894ec,67376810ed4bd524f10c8827,2024-11-15_09h37.52.434,Tarea de género gramatical,2024.2.2,Win32,60.97560976,,,,,,,,,,,,,,,,,,,,,,,,2717.7948,2718.8592,a,1,[],[],[],[],[],[],[],0.3915,1,2718.8593,2719.3594,,,,,,1008,MAS,CON,150,hilo,,l,0.3915,,2719.3595,2719.3598,-0.015740712,-0.393518519,0,0,0,,0,90,90,107,1,,,
,,,,,,fa14d2540c44d6a1c0861f96,66a626ef09d4e21e1a8894ec,67376810ed4bd524f10c8827,2024-11-15_09h37.52.434,Tarea de género gramatical,2024.2.2,Win32,60.97560976,,,,,,,,,,,,,,,,,,,,,,,,2719.3613,2720.692,l,1,[],[],[],[],[],[],[],0.6594,1,2720.6922,2721.1917,,,,,,1213,FEM,DIS,150,ciudad,el,a,0.6594,,2721.1918,2721.192,-0.015740712,-0.393518519,0,0,0,,0,91,91,312,1,,,
,,,,,,fa14d2540c44d6a1c0861f96,66a626ef09d4e21e1a8894ec,67376810ed4bd524f10c8827,2024-11-15_09h37.52.434,Tarea de género gramatical,2024.2.2,Win32,60.97560976,,,,,,,,,,,,,,,,,,,,,,,,2721.1945,2722.658,l,1,[],[],[],[],[],[],[],0.7843,1,2722.6582,2723.1577,,,,,,1203,FEM,CON,150,maldad,,a,0.7843,,2723.1593,2723.1602,-0.015740712,-0.393518519,0,0,0,,0,92,92,302,1,,,
,,,,,,fa14d2540c44d6a1c0861f96,66a626ef09d4e21e1a8894ec,67376810ed4bd524f10c8827,2024-11-15_09h37.52.434,Tarea de género gramatical,2024.2.2,Win32,60.97560976,,,,,,,,,,,,,,,,,,,,,,,,2723.1611,2724.2752,l,1,[],[],[],[],[],[],[],0.4425,1,2724.2753,2724.7738,,,,,,1082,FEM,AGR,150,prisa,la,a,0.4425,,2724.7739,2724.7741,-0.015740712,-0.393518519,0,0,0,,0,93,93,181,1,,,
,,,,,,fa14d2540c44d6a1c0861f96,66a626ef09d4e21e1a8894ec,67376810ed4bd524f10c8827,2024-11-15_09h37.52.434,Tarea de género gramatical,2024.2.2,Win32,60.97560976,,,,,,,,,,,,,,,,,,,,,,,,2724.7753,2725.9735,l,1,[],[],[],[],[],[],[],0.5198,1,2725.9736,2726.4733,,,,,,921,FEM,CON,150,boca,,a,0.5198,,2726.4734,2726.4736,-0.015740712,-0.393518519,0,0,0,,0,94,94,20,1,,,
,,,,,,fa14d2540c44d6a1c0861f96,66a626ef09d4e21e1a8894ec,67376810ed4bd524f10c8827,2024-11-15_09h37.52.434,Tarea de género gramatical,2024.2.2,Win32,60.97560976,,,,,,,,,,,,,,,,,,,,,,,,2726.4748,2727.9397,a,1,[],[],[],[],[],[],[],0.7917,1,2727.94,2728.4393,,,,,,1270,MAS,DIS,150,seguro,la,l,0.7917,,2728.4395,2728.4396,-0.015740712,-0.393518519,0,0,0,,0,95,95,369,1,,,
,,,,,,fa14d2540c44d6a1c0861f96,66a626ef09d4e21e1a8894ec,67376810ed4bd524f10c8827,2024-11-15_09h37.52.434,Tarea de género gramatical,2024.2.2,Win32,60.97560976,,,,,,,,,,,,,,,,,,,,,,,,2728.441,2729.6222,l,1,[],[],[],[],[],[],[],0.51,1,2729.6224,2730.1224,,,,,,1202,FEM,AGR,150,cabeza,la,a,0.51,,2730.1244,2730.1254,-0.015740712,-0.393518519,0,0,0,,0,96,96,301,1,,,
,,,,,,fa14d2540c44d6a1c0861f96,66a626ef09d4e21e1a8894ec,67376810ed4bd524f10c8827,2024-11-15_09h37.52.434,Tarea de género gramatical,2024.2.2,Win32,60.97560976,,,,,,,,,,,,,,,,,,,,,,,,2730.1264,2731.4384,a,1,[],[],[],[],[],[],[],0.6332,1,2731.4386,2731.9382,,,,,,1300,MAS,DIS,150,barrio,la,l,0.6332,,2731.9383,2731.9384,-0.015740712,-0.393518519,0,0,0,,0,97,97,399,1,,,
,,,,,,fa14d2540c44d6a1c0861f96,66a626ef09d4e21e1a8894ec,67376810ed4bd524f10c8827,2024-11-15_09h37.52.434,Tarea de género gramatical,2024.2.2,Win32,60.97560976,,,,,,,,,,,,,,,,,,,,,,,,2731.9398,2733.3876,l,1,[],[],[],[],[],[],[],0.7749,1,2733.3879,2733.8874,,,,,,1064,FEM,AGR,150,novia,la,a,0.7749,,2733.8875,2733.8877,-0.015740712,-0.393518519,0,0,0,,0,98,98,163,1,,,
,,,,,,fa14d2540c44d6a1c0861f96,66a626ef09d4e21e1a8894ec,67376810ed4bd524f10c8827,2024-11-15_09h37.52.434,Tarea de género gramatical,2024.2.2,Win32,60.97560976,,,,,,,,,,,,,,,,,,,,,,,,2733.8892,2735.6534,l,1,[],[],[],[],[],[],[],1.0928,1,2735.6534,2736.1534,,,,,,1207,FEM,DIS,150,suerte,el,a,1.0928,,2736.1534,2736.1536,-0.015740712,-0.393518519,0,0,0,,0,99,99,306,1,,,
,,,,,,fa14d2540c44d6a1c0861f96,66a626ef09d4e21e1a8894ec,67376810ed4bd524f10c8827,2024-11-15_09h37.52.434,Tarea de género gramatical,2024.2.2,Win32,60.97560976,,,,,,,,,,,,,,,,,,,,,,,,2736.155,2737.4028,a,1,[],[],[],[],[],[],[],0.5778,1,2737.403,2737.9028,,,,,,1001,MAS,AGR,150,giro,el,l,0.5778,,2737.9029,2737.903,-0.015740712,-0.393518519,0,0,0,,0,100,100,100,1,,,
,,,,,,fa14d2540c44d6a1c0861f96,66a626ef09d4e21e1a8894ec,67376810ed4bd524f10c8827,2024-11-15_09h37.52.434,Tarea de género gramatical,2024.2.2,Win32,60.97560976,,,,,,,,,,,,,,,,,,,,,,,,2737.9044,2738.9858,a,1,[],[],[],[],[],[],[],0.4007,1,2738.9858,2739.4864,,,,,,1247,MAS,AGR,150,cuello,el,l,0.4007,,2739.4882,2739.489,-0.015740712,-0.393518519,0,0,0,,0,101,101,346,1,,,
,,,,,,fa14d2540c44d6a1c0861f96,66a626ef09d4e21e1a8894ec,67376810ed4bd524f10c8827,2024-11-15_09h37.52.434,Tarea de género gramatical,2024.2.2,Win32,60.97560976,,,,,,,,,,,,,,,,,,,,,,,,2739.4899,2741.0851,a,1,[],[],[],[],[],[],[],0.9191,1,2741.0852,2741.5849,,,,,,940,MAS,DIS,150,dios,la,l,0.9191,,2741.585,2741.5852,-0.015740712,-0.393518519,0,0,0,,0,102,102,39,1,,,
,,,,,,fa14d2540c44d6a1c0861f96,66a626ef09d4e21e1a8894ec,67376810ed4bd524f10c8827,2024-11-15_09h37.52.434,Tarea de género gramatical,2024.2.2,Win32,60.97560976,,,,,,,,,,,,,,,,,,,,,,,,2741.5866,2742.7183,a,1,[],[],[],[],[],[],[],0.4565,1,2742.7185,2743.2176,,,,,,1194,MAS,CON,150,cable,,l,0.4565,,2743.2176,2743.2178,-0.015740712,-0.393518519,0,0,0,,0,103,103,293,1,,,
,,,,,,fa14d2540c44d6a1c0861f96,66a626ef09d4e21e1a8894ec,67376810ed4bd524f10c8827,2024-11-15_09h37.52.434,Tarea de género gramatical,2024.2.2,Win32,60.97560976,,,,,,,,,,,,,,,,,,,,,,,,2743.2192,2744.2839,l,1,[],[],[],[],[],[],[],0.3902,1,2744.2841,2744.7839,,,,,,1142,FEM,AGR,150,pizza,la,a,0.3902,,2744.784,2744.7841,-0.015740712,-0.393518519,0,0,0,,0,104,104,241,1,,,
,,,,,,fa14d2540c44d6a1c0861f96,66a626ef09d4e21e1a8894ec,67376810ed4bd524f10c8827,2024-11-15_09h37.52.434,Tarea de género gramatical,2024.2.2,Win32,60.97560976,,,,,,,,,,,,,,,,,,,,,,,,2744.7854,2745.8342,l,1,[],[],[],[],[],[],[],0.3777,1,2745.8343,2746.3336,,,,,,1131,FEM,CON,150,bruja,,a,0.3777,,2746.3352,2746.336,-0.015740712,-0.393518519,0,0,0,,0,105,105,230,1,,,
,,,,,,fa14d2540c44d6a1c0861f96,66a626ef09d4e21e1a8894ec,67376810ed4bd524f10c8827,2024-11-15_09h37.52.434,Tarea de género gramatical,2024.2.2,Win32,60.97560976,,,,,,,,,,,,,,,,,,,,,,,,2746.337,2747.5996,a,0,[],[],[],[],[],[],[],0.5964,0,2747.6006,2748.1,,,,,,1345,FEM,DIS,150,bondad,el,a,0.5964,,2748.1,2748.1001,-0.015740712,-0.393518519,0,0,0,,0,106,106,444,1,,,
,,,,,,fa14d2540c44d6a1c0861f96,66a626ef09d4e21e1a8894ec,67376810ed4bd524f10c8827,2024-11-15_09h37.52.434,Tarea de género gramatical,2024.2.2,Win32,60.97560976,,,,,,,,,,,,,,,,,,,,,,,,2748.1016,2749.2155,a,0,[],[],[],[],[],[],[],0.4355,0,2749.2157,2749.7154,,,,,,1063,FEM,DIS,150,calle,el,a,0.4355,,2749.7154,2749.7156,-0.015740712,-0.393518519,0,0,0,,0,107,107,162,1,,,
,,,,,,fa14d2540c44d6a1c0861f96,66a626ef09d4e21e1a8894ec,67376810ed4bd524f10c8827,2024-11-15_09h37.52.434,Tarea de género gramatical,2024.2.2,Win32,60.97560976,,,,,,,,,,,,,,,,,,,,,,,,2749.717,2751.1489,l,1,[],[],[],[],[],[],[],0.7584,1,2751.1499,2751.6487,,,,,,981,FEM,CON,150,cima,,a,0.7584,,2751.6488,2751.6489,-0.015740712,-0.393518519,0,0,0,,0,108,108,80,1,,,
,,,,,,fa14d2540c44d6a1c0861f96,66a626ef09d4e21e1a8894ec,67376810ed4bd524f10c8827,2024-11-15_09h37.52.434,Tarea de género gramatical,2024.2.2,Win32,60.97560976,,,,,,,,,,,,,,,,,,,,,,,,2751.6502,2752.8818,l,1,[],[],[],[],[],[],[],0.5565,1,2752.8819,2753.3817,,,,,,1095,FEM,CON,150,pared,,a,0.5565,,2753.3818,2753.3818,-0.015740712,-0.393518519,0,0,0,,0,109,109,194,1,,,
,,,,,,fa14d2540c44d6a1c0861f96,66a626ef09d4e21e1a8894ec,67376810ed4bd524f10c8827,2024-11-15_09h37.52.434,Tarea de género gramatical,2024.2.2,Win32,60.97560976,,,,,,,,,,,,,,,,,,,,,,,,2753.3833,2754.5138,a,1,[],[],[],[],[],[],[],0.4518,1,2754.514,2755.0136,,,,,,1324,MAS,DIS,150,rastro,la,l,0.4518,,2755.0154,2755.0164,-0.015740712,-0.393518519,0,0,0,,0,110,110,423,1,,,
,,,,,,fa14d2540c44d6a1c0861f96,66a626ef09d4e21e1a8894ec,67376810ed4bd524f10c8827,2024-11-15_09h37.52.434,Tarea de género gramatical,2024.2.2,Win32,60.97560976,,,,,,,,,,,,,,,,,,,,,,,,2755.0171,2756.4796,a,1,[],[],[],[],[],[],[],0.795,1,2756.4797,2756.9797,,,,,,983,MAS,AGR,150,nene,el,l,0.795,,2756.9798,2756.9799,-0.015740712,-0.393518519,0,0,0,,0,111,111,82,1,,,
,,,,,,fa14d2540c44d6a1c0861f96,66a626ef09d4e21e1a8894ec,67376810ed4bd524f10c8827,2024-11-15_09h37.52.434,Tarea de género gramatical,2024.2.2,Win32,60.97560976,,,,,,,,,,,,,,,,,,,,,,,,2756.9818,2758.4791,l,1,[],[],[],[],[],[],[],0.8203,1,2758.4792,2758.9793,,,,,,1047,FEM,CON,150,grúa,,a,0.8203,,2758.9793,2758.9794,-0.015740712,-0.393518519,0,0,0,,0,112,112,146,1,,,
,,,,,,fa14d2540c44d6a1c0861f96,66a626ef09d4e21e1a8894ec,67376810ed4bd524f10c8827,2024-11-15_09h37.52.434,Tarea de género gramatical,2024.2.2,Win32,60.97560976,,,,,,,,,,,,,,,,,,,,,,,,2758.9809,2760.5118,l,1,[],[],[],[],[],[],[],0.8583,1,2760.512,2761.0122,,,,,,1045,FEM,DIS,150,bota,el,a,0.8583,,2761.0123,2761.0125,-0.015740712,-0.393518519,0,0,0,,0,113,113,144,1,,,
,,,,,,fa14d2540c44d6a1c0861f96,66a626ef09d4e21e1a8894ec,67376810ed4bd524f10c8827,2024-11-15_09h37.52.434,Tarea de género gramatical,2024.2.2,Win32,60.97560976,,,,,,,,,,,,,,,,,,,,,,,,2761.0136,2762.7614,l,1,[],[],[],[],[],[],[],1.0756,1,2762.7616,2763.2608,,,,,,1317,FEM,CON,150,cabaña,,a,1.0756,,2763.2625,2763.2634,-0.015740712,-0.393518519,0,0,0,,0,114,114,416,1,,,
,,,,,,fa14d2540c44d6a1c0861f96,66a626ef09d4e21e1a8894ec,67376810ed4bd524f10c8827,2024-11-15_09h37.52.434,Tarea de género gramatical,2024.2.2,Win32,60.97560976,,,,,,,,,,,,,,,,,,,,,,,,2763.2641,2764.3103,a,1,[],[],[],[],[],[],[],0.3768,1,2764.3105,2764.8102,,,,,,977,MAS,AGR,150,pico,el,l,0.3768,,2764.8104,2764.8105,-0.015740712,-0.393518519,0,0,0,,0,115,115,76,1,,,
,,,,,,fa14d2540c44d6a1c0861f96,66a626ef09d4e21e1a8894ec,67376810ed4bd524f10c8827,2024-11-15_09h37.52.434,Tarea de género gramatical,2024.2.2,Win32,60.97560976,,,,,,,,,,,,,,,,,,,,,,,,2764.8119,2765.8433,l,1,[],[],[],[],[],[],[],0.3595,1,2765.8435,2766.3431,,,,,,1335,FEM,CON,150,niebla,,a,0.3595,,2766.3432,2766.3434,-0.015740712,-0.393518519,0,0,0,,0,116,116,434,1,,,
,,,,,,fa14d2540c44d6a1c0861f96,66a626ef09d4e21e1a8894ec,67376810ed4bd524f10c8827,2024-11-15_09h37.52.434,Tarea de género gramatical,2024.2.2,Win32,60.97560976,,,,,,,,,,,,,,,,,,,,,,,,2766.3451,2767.7107,l,0,[],[],[],[],[],[],[],0.6976,0,2767.7115,2768.209,,,,,,1134,MAS,CON,150,héroe,,l,0.6976,,2768.2091,2768.2092,-0.015740712,-0.393518519,0,0,0,,0,117,117,233,1,,,
,,,,,,fa14d2540c44d6a1c0861f96,66a626ef09d4e21e1a8894ec,67376810ed4bd524f10c8827,2024-11-15_09h37.52.434,Tarea de género gramatical,2024.2.2,Win32,60.97560976,,,,,,,,,,,,,,,,,,,,,,,,2768.2104,2770.1588,l,0,[],[],[],[],[],[],[],1.2703,0,2770.1589,2770.6584,,,,,,958,MAS,DIS,150,mono,la,l,1.2703,,2770.6585,2770.6587,-0.015740712,-0.393518519,0,0,0,,0,118,118,57,1,,,
,,,,,,fa14d2540c44d6a1c0861f96,66a626ef09d4e21e1a8894ec,67376810ed4bd524f10c8827,2024-11-15_09h37.52.434,Tarea de género gramatical,2024.2.2,Win32,60.97560976,,,,,,,,,,,,,,,,,,,,,,,,2770.6604,2771.9912,l,1,[],[],[],[],[],[],[],0.6527,1,2771.9923,2772.4917,,,,,,1021,FEM,DIS,150,pila,el,a,0.6527,,2772.4932,2772.4942,-0.015740712,-0.393518519,0,0,0,,0,119,119,120,1,,,
,,,,,,fa14d2540c44d6a1c0861f96,66a626ef09d4e21e1a8894ec,67376810ed4bd524f10c8827,2024-11-15_09h37.52.434,Tarea de género gramatical,2024.2.2,Win32,60.97560976,,,,,,,,,,,,,,,,,,,,,,,,2772.495,2774.7403,a,0,[],[],[],[],[],[],[],1.5659,0,2774.7412,2775.2401,,,,,,1124,FEM,AGR,150,arena,la,a,1.5659,,2775.2401,2775.2404,-0.015740712,-0.393518519,0,0,0,,0,120,120,223,1,,,
,,,,,,fa14d2540c44d6a1c0861f96,66a626ef09d4e21e1a8894ec,67376810ed4bd524f10c8827,2024-11-15_09h37.52.434,Tarea de género gramatical,2024.2.2,Win32,60.97560976,,,,,,,,,,,,,,,,,,,,,,,,2775.2418,2776.6063,a,1,[],[],[],[],[],[],[],0.6907,1,2776.6074,2777.106,,,,,,1254,MAS,CON,150,camión,,l,0.6907,,2777.1061,2777.1063,-0.015740712,-0.393518519,0,0,0,,0,121,121,353,1,,,
,,,,,,fa14d2540c44d6a1c0861f96,66a626ef09d4e21e1a8894ec,67376810ed4bd524f10c8827,2024-11-15_09h37.52.434,Tarea de género gramatical,2024.2.2,Win32,60.97560976,,,,,,,,,,,,,,,,,,,,,,,,2777.1076,2778.6557,a,1,[],[],[],[],[],[],[],0.8661,1,2778.6559,2779.1558,,,,,,1314,MAS,CON,150,sótano,,l,0.8661,,2779.1559,2779.156,-0.015740712,-0.393518519,0,0,0,,0,122,122,413,1,,,
,,,,,,fa14d2540c44d6a1c0861f96,66a626ef09d4e21e1a8894ec,67376810ed4bd524f10c8827,2024-11-15_09h37.52.434,Tarea de género gramatical,2024.2.2,Win32,60.97560976,,,,,,,,,,,,,,,,,,,,,,,,2779.1575,2780.2883,a,1,[],[],[],[],[],[],[],0.4607,1,2780.2884,2780.7886,,,,,,1312,MAS,DIS,150,espejo,la,l,0.4607,,2780.7902,2780.7911,-0.015740712,-0.393518519,0,0,0,,0,123,123,411,1,,,
,,,,,,fa14d2540c44d6a1c0861f96,66a626ef09d4e21e1a8894ec,67376810ed4bd524f10c8827,2024-11-15_09h37.52.434,Tarea de género gramatical,2024.2.2,Win32,60.97560976,,,,,,,,,,,,,,,,,,,,,,,,2780.7919,2781.8713,a,1,[],[],[],[],[],[],[],0.4071,1,2781.8714,2782.3711,,,,,,1264,MAS,DIS,150,viento,la,l,0.4071,,2782.3711,2782.3712,-0.015740712,-0.393518519,0,0,0,,0,124,124,363,1,,,
,,,,,,fa14d2540c44d6a1c0861f96,66a626ef09d4e21e1a8894ec,67376810ed4bd524f10c8827,2024-11-15_09h37.52.434,Tarea de género gramatical,2024.2.2,Win32,60.97560976,,,,,,,,,,,,,,,,,,,,,,,,2782.3727,2783.4556,a,1,[],[],[],[],[],[],[],0.413,1,2783.4557,2783.9541,,,,,,1259,MAS,AGR,150,bosque,el,l,0.413,,2783.9542,2783.9543,-0.015740712,-0.393518519,0,0,0,,0,125,125,358,1,,,
,,,,,,fa14d2540c44d6a1c0861f96,66a626ef09d4e21e1a8894ec,67376810ed4bd524f10c8827,2024-11-15_09h37.52.434,Tarea de género gramatical,2024.2.2,Win32,60.97560976,,,,,,,,,,,,,,,,,,,,,,,,2783.9559,2785.1702,l,1,[],[],[],[],[],[],[],0.5348,1,2785.1704,2785.6698,,,,,,1221,FEM,CON,150,comida,,a,0.5348,,2785.6699,2785.6702,-0.015740712,-0.393518519,0,0,0,,0,126,126,320,1,,,
,,,,,,fa14d2540c44d6a1c0861f96,66a626ef09d4e21e1a8894ec,67376810ed4bd524f10c8827,2024-11-15_09h37.52.434,Tarea de género gramatical,2024.2.2,Win32,60.97560976,,,,,,,,,,,,,,,,,,,,,,,,2785.6716,2786.9861,l,1,[],[],[],[],[],[],[],0.634,1,2786.9864,2787.4858,,,,,,1238,FEM,AGR,150,abuela,la,a,0.634,,2787.486,2787.4862,-0.015740712,-0.393518519,0,0,0,,0,127,127,337,1,,,
,,,,,,fa14d2540c44d6a1c0861f96,66a626ef09d4e21e1a8894ec,67376810ed4bd524f10c8827,2024-11-15_09h37.52.434,Tarea de género gramatical,2024.2.2,Win32,60.97560976,,,,,,,,,,,,,,,,,,,,,,,,2787.4877,2788.6356,a,1,[],[],[],[],[],[],[],0.4691,1,2788.6357,2789.1354,,,,,,1216,MAS,DIS,150,cuerpo,la,l,0.4691,,2789.1369,2789.1378,-0.015740712,-0.393518519,0,0,0,,0,128,128,315,1,,,
,,,,,,fa14d2540c44d6a1c0861f96,66a626ef09d4e21e1a8894ec,67376810ed4bd524f10c8827,2024-11-15_09h37.52.434,Tarea de género gramatical,2024.2.2,Win32,60.97560976,,,,,,,,,,,,,,,,,,,,,,,,2789.1387,2790.4183,l,1,[],[],[],[],[],[],[],0.6066,1,2790.4185,2790.9187,,,,,,950,FEM,AGR,150,dama,la,a,0.6066,,2790.9189,2790.919,-0.015740712,-0.393518519,0,0,0,,0,129,129,49,1,,,
,,,,,,fa14d2540c44d6a1c0861f96,66a626ef09d4e21e1a8894ec,67376810ed4bd524f10c8827,2024-11-15_09h37.52.434,Tarea de género gramatical,2024.2.2,Win32,60.97560976,,,,,,,,,,,,,,,,,,,,,,,,2790.9203,2792.2011,l,1,[],[],[],[],[],[],[],0.5993,1,2792.2013,2792.7009,,,,,,1167,FEM,CON,150,barba,,a,0.5993,,2792.701,2792.7012,-0.015740712,-0.393518519,0,0,0,,0,130,130,266,1,,,
,,,,,,fa14d2540c44d6a1c0861f96,66a626ef09d4e21e1a8894ec,67376810ed4bd524f10c8827,2024-11-15_09h37.52.434,Tarea de género gramatical,2024.2.2,Win32,60.97560976,,,,,,,,,,,,,,,,,,,,,,,,2792.7028,2793.7171,l,1,[],[],[],[],[],[],[],0.3444,1,2793.7173,2794.217,,,,,,1107,FEM,CON,150,playa,,a,0.3444,,2794.2171,2794.2173,-0.015740712,-0.393518519,0,0,0,,0,131,131,206,1,,,
,,,,,,fa14d2540c44d6a1c0861f96,66a626ef09d4e21e1a8894ec,67376810ed4bd524f10c8827,2024-11-15_09h37.52.434,Tarea de género gramatical,2024.2.2,Win32,60.97560976,,,,,,,,,,,,,,,,,,,,,,,,2794.2187,2795.2665,a,1,[],[],[],[],[],[],[],0.3764,1,2795.2666,2795.7664,,,,,,1084,MAS,DIS,150,cielo,la,l,0.3764,,2795.768,2795.7689,-0.015740712,-0.393518519,0,0,0,,0,132,132,183,1,,,
,,,,,,fa14d2540c44d6a1c0861f96,66a626ef09d4e21e1a8894ec,67376810ed4bd524f10c8827,2024-11-15_09h37.52.434,Tarea de género gramatical,2024.2.2,Win32,60.97560976,,,,,,,,,,,,,,,,,,,,,,,,2795.7696,2796.9161,a,1,[],[],[],[],[],[],[],0.4653,1,2796.9162,2797.4165,,,,,,1350,MAS,CON,150,conejo,,l,0.4653,,2797.4166,2797.4167,-0.015740712,-0.393518519,0,0,0,,0,133,133,449,1,,,
,,,,,,fa14d2540c44d6a1c0861f96,66a626ef09d4e21e1a8894ec,67376810ed4bd524f10c8827,2024-11-15_09h37.52.434,Tarea de género gramatical,2024.2.2,Win32,60.97560976,,,,,,,,,,,,,,,,,,,,,,,,2797.4184,2798.5989,a,1,[],[],[],[],[],[],[],0.5071,1,2798.5991,2799.0989,,,,,,1114,MAS,DIS,150,fondo,la,l,0.5071,,2799.099,2799.0992,-0.015740712,-0.393518519,0,0,0,,0,134,134,213,1,,,
,,,,,,fa14d2540c44d6a1c0861f96,66a626ef09d4e21e1a8894ec,67376810ed4bd524f10c8827,2024-11-15_09h37.52.434,Tarea de género gramatical,2024.2.2,Win32,60.97560976,,,,,,,,,,,,,,,,,,,,,,,,2799.1004,2800.1318,a,1,[],[],[],[],[],[],[],0.3607,1,2800.132,2800.6318,,,,,,1067,MAS,AGR,150,juego,el,l,0.3607,,2800.632,2800.6321,-0.015740712,-0.393518519,0,0,0,,0,135,135,166,1,,,
,,,,,,fa14d2540c44d6a1c0861f96,66a626ef09d4e21e1a8894ec,67376810ed4bd524f10c8827,2024-11-15_09h37.52.434,Tarea de género gramatical,2024.2.2,Win32,60.97560976,,,,,,,,,,,,,,,,,,,,,,,,2800.6334,2801.8313,a,1,[],[],[],[],[],[],[],0.5196,1,2801.8314,2802.3309,,,,,,910,MAS,DIS,150,niño,la,l,0.5196,,2802.331,2802.3311,-0.015740712,-0.393518519,0,0,0,,0,136,136,9,1,,,
,,,,,,fa14d2540c44d6a1c0861f96,66a626ef09d4e21e1a8894ec,67376810ed4bd524f10c8827,2024-11-15_09h37.52.434,Tarea de género gramatical,2024.2.2,Win32,60.97560976,,,,,,,,,,,,,,,,,,,,,,,,2802.3325,2803.448,l,1,[],[],[],[],[],[],[],0.4457,1,2803.4481,2803.947,,,,,,1215,FEM,CON,150,manera,,a,0.4457,,2803.9487,2803.9496,-0.015740712,-0.393518519,0,0,0,,0,137,137,314,1,,,
,,,,,,fa14d2540c44d6a1c0861f96,66a626ef09d4e21e1a8894ec,67376810ed4bd524f10c8827,2024-11-15_09h37.52.434,Tarea de género gramatical,2024.2.2,Win32,60.97560976,,,,,,,,,,,,,,,,,,,,,,,,2803.9503,2805.1799,a,1,[],[],[],[],[],[],[],0.5592,1,2805.1801,2805.6798,,,,,,1122,MAS,CON,150,valor,,l,0.5592,,2805.6799,2805.68,-0.015740712,-0.393518519,0,0,0,,0,138,138,221,1,,,
,,,,,,fa14d2540c44d6a1c0861f96,66a626ef09d4e21e1a8894ec,67376810ed4bd524f10c8827,2024-11-15_09h37.52.434,Tarea de género gramatical,2024.2.2,Win32,60.97560976,,,,,,,,,,,,,,,,,,,,,,,,2805.6814,2806.8462,l,1,[],[],[],[],[],[],[],0.4938,1,2806.8463,2807.3463,,,,,,903,FEM,CON,150,cosa,,a,0.4938,,2807.3464,2807.3466,-0.015740712,-0.393518519,0,0,0,,0,139,139,2,1,,,
,,,,,,fa14d2540c44d6a1c0861f96,66a626ef09d4e21e1a8894ec,67376810ed4bd524f10c8827,2024-11-15_09h37.52.434,Tarea de género gramatical,2024.2.2,Win32,60.97560976,,,,,,,,,,,,,,,,,,,,,,,,2807.348,2808.5461,a,1,[],[],[],[],[],[],[],0.5301,1,2808.5461,2809.0454,,,,,,1332,MAS,CON,150,océano,,l,0.5301,,2809.0455,2809.0456,-0.015740712,-0.393518519,0,0,0,,0,140,140,431,1,,,
,,,,,,fa14d2540c44d6a1c0861f96,66a626ef09d4e21e1a8894ec,67376810ed4bd524f10c8827,2024-11-15_09h37.52.434,Tarea de género gramatical,2024.2.2,Win32,60.97560976,,,,,,,,,,,,,,,,,,,,,,,,2809.047,2810.295,l,1,[],[],[],[],[],[],[],0.5764,1,2810.2952,2810.7949,,,,,,1220,FEM,AGR,150,fiesta,la,a,0.5764,,2810.7967,2810.7975,-0.015740712,-0.393518519,0,0,0,,0,141,141,319,1,,,
,,,,,,fa14d2540c44d6a1c0861f96,66a626ef09d4e21e1a8894ec,67376810ed4bd524f10c8827,2024-11-15_09h37.52.434,Tarea de género gramatical,2024.2.2,Win32,60.97560976,,,,,,,,,,,,,,,,,,,,,,,,2810.7984,2811.9942,a,0,[],[],[],[],[],[],[],0.5262,0,2811.995,2812.494,,,,,,968,FEM,AGR,150,pata,la,a,0.5262,,2812.4941,2812.4943,-0.015740712,-0.393518519,0,0,0,,0,142,142,67,1,,,
,,,,,,fa14d2540c44d6a1c0861f96,66a626ef09d4e21e1a8894ec,67376810ed4bd524f10c8827,2024-11-15_09h37.52.434,Tarea de género gramatical,2024.2.2,Win32,60.97560976,,,,,,,,,,,,,,,,,,,,,,,,2812.4957,2813.927,l,1,[],[],[],[],[],[],[],0.7531,1,2813.9283,2814.4268,,,,,,1101,FEM,CON,150,leche,,a,0.7531,,2814.4269,2814.427,-0.015740712,-0.393518519,0,0,0,,0,143,143,200,1,,,
,,,,,,fa14d2540c44d6a1c0861f96,66a626ef09d4e21e1a8894ec,67376810ed4bd524f10c8827,2024-11-15_09h37.52.434,Tarea de género gramatical,2024.2.2,Win32,60.97560976,,,,,,,,,,,,,,,,,,,,,,,,2814.4285,2815.4438,l,1,[],[],[],[],[],[],[],0.3395,1,2815.4439,2815.9428,,,,,,1292,FEM,AGR,150,maleta,la,a,0.3395,,2815.943,2815.9431,-0.015740712,-0.393518519,0,0,0,,0,144,144,391,1,,,
,,,,,,fa14d2540c44d6a1c0861f96,66a626ef09d4e21e1a8894ec,67376810ed4bd524f10c8827,2024-11-15_09h37.52.434,Tarea de género gramatical,2024.2.2,Win32,60.97560976,,,,,,,,,,,,,,,,,,,,,,,,2815.9446,2817.2095,a,1,[],[],[],[],[],[],[],0.5966,1,2817.2096,2817.709,,,,,,929,MAS,AGR,150,frío,el,l,0.5966,,2817.709,2817.7092,-0.015740712,-0.393518519,0,0,0,,0,145,145,28,1,,,
,,,,,,fa14d2540c44d6a1c0861f96,66a626ef09d4e21e1a8894ec,67376810ed4bd524f10c8827,2024-11-15_09h37.52.434,Tarea de género gramatical,2024.2.2,Win32,60.97560976,,,,,,,,,,,,,,,,,,,,,,,,2817.7106,2818.842,l,1,[],[],[],[],[],[],[],0.4513,1,2818.8422,2819.3418,,,,,,969,FEM,CON,150,rata,,a,0.4513,,2819.3434,2819.3442,-0.015740712,-0.393518519,0,0,0,,0,146,146,68,1,,,
,,,,,,fa14d2540c44d6a1c0861f96,66a626ef09d4e21e1a8894ec,67376810ed4bd524f10c8827,2024-11-15_09h37.52.434,Tarea de género gramatical,2024.2.2,Win32,60.97560976,,,,,,,,,,,,,,,,,,,,,,,,2819.345,2821.0748,l,1,[],[],[],[],[],[],[],1.0508,1,2821.0749,2821.5743,,,,,,1119,FEM,CON,150,costa,,a,1.0508,,2821.5745,2821.5746,-0.015740712,-0.393518519,0,0,0,,0,147,147,218,1,,,
,,,,,,fa14d2540c44d6a1c0861f96,66a626ef09d4e21e1a8894ec,67376810ed4bd524f10c8827,2024-11-15_09h37.52.434,Tarea de género gramatical,2024.2.2,Win32,60.97560976,,,,,,,,,,,,,,,,,,,,,,,,2821.5758,2822.6739,a,1,[],[],[],[],[],[],[],0.4293,1,2822.674,2823.1738,,,,,,1236,MAS,CON,150,crimen,,l,0.4293,,2823.1739,2823.1741,-0.015740712,-0.393518519,0,0,0,,0,148,148,335,1,,,
,,,,,,fa14d2540c44d6a1c0861f96,66a626ef09d4e21e1a8894ec,67376810ed4bd524f10c8827,2024-11-15_09h37.52.434,Tarea de género gramatical,2024.2.2,Win32,60.97560976,,,,,,,,,,,,,,,,,,,,,,,,2823.1754,2824.3572,a,1,[],[],[],[],[],[],[],0.507,1,2824.3574,2824.8566,,,,,,1296,MAS,CON,150,tesoro,,l,0.507,,2824.8567,2824.8569,-0.015740712,-0.393518519,0,0,0,,0,149,149,395,1,,,
,,,,,,fa14d2540c44d6a1c0861f96,66a626ef09d4e21e1a8894ec,67376810ed4bd524f10c8827,2024-11-15_09h37.52.434,Tarea de género gramatical,2024.2.2,Win32,60.97560976,,,,,,,,,,,,,,,,,,,,,,,,2824.8583,2826.2062,a,1,[],[],[],[],[],[],[],0.6731,1,2826.2064,2826.706,,,,,,953,MAS,AGR,150,vaso,el,l,0.6731,,2826.7074,2870.7414,-0.015740712,-0.39444443,1,0,0,,0,150,150,52,1,break_done_button,,
,,,,,,fa14d2540c44d6a1c0861f96,66a626ef09d4e21e1a8894ec,67376810ed4bd524f10c8827,2024-11-15_09h37.52.434,Tarea de género gramatical,2024.2.2,Win32,60.97560976,,,,,,,,,,,,,,,,,,,,,,,,2870.7427,2872.3737,l,1,[],[],[],[],[],[],[],0.962,1,2872.3739,2872.8736,,,,,,998,FEM,AGR,150,fuga,la,a,0.962,,2872.8737,2872.8739,-0.015740712,-0.39444443,0,0,0,,0,151,151,97,1,,,
,,,,,,fa14d2540c44d6a1c0861f96,66a626ef09d4e21e1a8894ec,67376810ed4bd524f10c8827,2024-11-15_09h37.52.434,Tarea de género gramatical,2024.2.2,Win32,60.97560976,,,,,,,,,,,,,,,,,,,,,,,,2872.8752,2874.1233,a,1,[],[],[],[],[],[],[],0.5763,1,2874.1235,2874.623,,,,,,1140,MAS,CON,150,ruido,,l,0.5763,,2874.623,2874.6232,-0.015740712,-0.39444443,0,0,0,,0,152,152,239,1,,,
,,,,,,fa14d2540c44d6a1c0861f96,66a626ef09d4e21e1a8894ec,67376810ed4bd524f10c8827,2024-11-15_09h37.52.434,Tarea de género gramatical,2024.2.2,Win32,60.97560976,,,,,,,,,,,,,,,,,,,,,,,,2874.6246,2875.756,l,1,[],[],[],[],[],[],[],0.4676,1,2875.7562,2876.256,,,,,,997,FEM,DIS,150,capa,el,a,0.4676,,2876.2561,2876.2563,-0.015740712,-0.39444443,0,0,0,,0,153,153,96,1,,,
,,,,,,fa14d2540c44d6a1c0861f96,66a626ef09d4e21e1a8894ec,67376810ed4bd524f10c8827,2024-11-15_09h37.52.434,Tarea de género gramatical,2024.2.2,Win32,60.97560976,,,,,,,,,,,,,,,,,,,,,,,,2876.2576,2877.389,a,1,[],[],[],[],[],[],[],0.4542,1,2877.3891,2877.8885,,,,,,1019,MAS,AGR,150,mito,el,l,0.4542,,2877.8886,2877.8888,-0.015740712,-0.39444443,0,0,0,,0,154,154,118,1,,,
,,,,,,fa14d2540c44d6a1c0861f96,66a626ef09d4e21e1a8894ec,67376810ed4bd524f10c8827,2024-11-15_09h37.52.434,Tarea de género gramatical,2024.2.2,Win32,60.97560976,,,,,,,,,,,,,,,,,,,,,,,,2877.8902,2879.0383,a,1,[],[],[],[],[],[],[],0.4678,1,2879.0384,2879.5379,,,,,,1199,MAS,AGR,150,rumbo,el,l,0.4678,,2879.5398,2879.5407,-0.015740712,-0.39444443,0,0,0,,0,155,155,298,1,,,
,,,,,,fa14d2540c44d6a1c0861f96,66a626ef09d4e21e1a8894ec,67376810ed4bd524f10c8827,2024-11-15_09h37.52.434,Tarea de género gramatical,2024.2.2,Win32,60.97560976,,,,,,,,,,,,,,,,,,,,,,,,2879.5415,2880.8044,a,1,[],[],[],[],[],[],[],0.5884,1,2880.8045,2881.304,,,,,,1026,MAS,CON,150,lazo,,l,0.5884,,2881.3041,2881.3043,-0.015740712,-0.39444443,0,0,0,,0,156,156,125,1,,,
,,,,,,fa14d2540c44d6a1c0861f96,66a626ef09d4e21e1a8894ec,67376810ed4bd524f10c8827,2024-11-15_09h37.52.434,Tarea de género gramatical,2024.2.2,Win32,60.97560976,,,,,,,,,,,,,,,,,,,,,,,,2881.3056,2882.4037,l,1,[],[],[],[],[],[],[],0.4213,1,2882.4038,2882.9034,,,,,,1244,FEM,AGR,150,pareja,la,a,0.4213,,2882.9034,2882.9037,-0.015740712,-0.39444443,0,0,0,,0,157,157,343,1,,,
,,,,,,fa14d2540c44d6a1c0861f96,66a626ef09d4e21e1a8894ec,67376810ed4bd524f10c8827,2024-11-15_09h37.52.434,Tarea de género gramatical,2024.2.2,Win32,60.97560976,,,,,,,,,,,,,,,,,,,,,,,,2882.9051,2884.2864,a,1,[],[],[],[],[],[],[],0.6992,1,2884.2866,2884.7862,,,,,,1102,MAS,DIS,150,honor,la,l,0.6992,,2884.7864,2884.7865,-0.015740712,-0.39444443,0,0,0,,0,158,158,201,1,,,
,,,,,,fa14d2540c44d6a1c0861f96,66a626ef09d4e21e1a8894ec,67376810ed4bd524f10c8827,2024-11-15_09h37.52.434,Tarea de género gramatical,2024.2.2,Win32,60.97560976,,,,,,,,,,,,,,,,,,,,,,,,2884.7879,2885.986,l,1,[],[],[],[],[],[],[],0.5232,1,2885.9863,2886.4857,,,,,,932,FEM,AGR,150,caja,la,a,0.5232,,2886.4874,2886.4883,-0.015740712,-0.39444443,0,0,0,,0,159,159,31,1,,,
,,,,,,fa14d2540c44d6a1c0861f96,66a626ef09d4e21e1a8894ec,67376810ed4bd524f10c8827,2024-11-15_09h37.52.434,Tarea de género gramatical,2024.2.2,Win32,60.97560976,,,,,,,,,,,,,,,,,,,,,,,,2886.4891,2887.7187,l,1,[],[],[],[],[],[],[],0.5516,1,2887.7188,2888.2187,,,,,,1225,FEM,DIS,150,tierra,el,a,0.5516,,2888.2189,2888.219,-0.015740712,-0.39444443,0,0,0,,0,160,160,324,1,,,
,,,,,,fa14d2540c44d6a1c0861f96,66a626ef09d4e21e1a8894ec,67376810ed4bd524f10c8827,2024-11-15_09h37.52.434,Tarea de género gramatical,2024.2.2,Win32,60.97560976,,,,,,,,,,,,,,,,,,,,,,,,2888.2205,2889.2189,l,1,[],[],[],[],[],[],[],0.3298,1,2889.2191,2889.7179,,,,,,1100,FEM,AGR,150,silla,la,a,0.3298,,2889.718,2889.7182,-0.015740712,-0.39444443,0,0,0,,0,161,161,199,1,,,
,,,,,,fa14d2540c44d6a1c0861f96,66a626ef09d4e21e1a8894ec,67376810ed4bd524f10c8827,2024-11-15_09h37.52.434,Tarea de género gramatical,2024.2.2,Win32,60.97560976,,,,,,,,,,,,,,,,,,,,,,,,2889.7197,2890.8008,l,1,[],[],[],[],[],[],[],0.4106,1,2890.801,2891.3007,,,,,,1323,FEM,CON,150,poesía,,a,0.4106,,2891.3007,2891.301,-0.015740712,-0.39444443,0,0,0,,0,162,162,422,1,,,
,,,,,,fa14d2540c44d6a1c0861f96,66a626ef09d4e21e1a8894ec,67376810ed4bd524f10c8827,2024-11-15_09h37.52.434,Tarea de género gramatical,2024.2.2,Win32,60.97560976,,,,,,,,,,,,,,,,,,,,,,,,2891.3022,2892.6503,a,1,[],[],[],[],[],[],[],0.6663,1,2892.6506,2893.1506,,,,,,1072,MAS,DIS,150,poder,la,l,0.6663,,2893.1507,2893.1508,-0.015740712,-0.39444443,0,0,0,,0,163,163,171,1,,,
,,,,,,fa14d2540c44d6a1c0861f96,66a626ef09d4e21e1a8894ec,67376810ed4bd524f10c8827,2024-11-15_09h37.52.434,Tarea de género gramatical,2024.2.2,Win32,60.97560976,,,,,,,,,,,,,,,,,,,,,,,,2893.1524,2894.333,a,1,[],[],[],[],[],[],[],0.5108,1,2894.3331,2894.8328,,,,,,1080,MAS,CON,150,fuego,,l,0.5108,,2894.8345,2894.8354,-0.015740712,-0.39444443,0,0,0,,0,164,164,179,1,,,
,,,,,,fa14d2540c44d6a1c0861f96,66a626ef09d4e21e1a8894ec,67376810ed4bd524f10c8827,2024-11-15_09h37.52.434,Tarea de género gramatical,2024.2.2,Win32,60.97560976,,,,,,,,,,,,,,,,,,,,,,,,2894.8362,2896.0325,l,1,[],[],[],[],[],[],[],0.5199,1,2896.0327,2896.533,,,,,,1088,FEM,AGR,150,bomba,la,a,0.5199,,2896.5331,2896.5333,-0.015740712,-0.39444443,0,0,0,,0,165,165,187,1,,,
,,,,,,fa14d2540c44d6a1c0861f96,66a626ef09d4e21e1a8894ec,67376810ed4bd524f10c8827,2024-11-15_09h37.52.434,Tarea de género gramatical,2024.2.2,Win32,60.97560976,,,,,,,,,,,,,,,,,,,,,,,,2896.5347,2897.8324,l,1,[],[],[],[],[],[],[],0.6303,1,2897.8326,2898.3316,,,,,,1069,FEM,DIS,150,vista,el,a,0.6303,,2898.3316,2898.3318,-0.015740712,-0.39444443,0,0,0,,0,166,166,168,1,,,
,,,,,,fa14d2540c44d6a1c0861f96,66a626ef09d4e21e1a8894ec,67376810ed4bd524f10c8827,2024-11-15_09h37.52.434,Tarea de género gramatical,2024.2.2,Win32,60.97560976,,,,,,,,,,,,,,,,,,,,,,,,2898.3333,2899.6645,a,1,[],[],[],[],[],[],[],0.6544,1,2899.6647,2900.1653,,,,,,1061,MAS,AGR,150,chico,el,l,0.6544,,2900.1653,2900.1655,-0.015740712,-0.39444443,0,0,0,,0,167,167,160,1,,,
,,,,,,fa14d2540c44d6a1c0861f96,66a626ef09d4e21e1a8894ec,67376810ed4bd524f10c8827,2024-11-15_09h37.52.434,Tarea de género gramatical,2024.2.2,Win32,60.97560976,,,,,,,,,,,,,,,,,,,,,,,,2900.1672,2902.0477,a,1,[],[],[],[],[],[],[],1.2042,1,2902.0478,2902.5468,,,,,,934,MAS,DIS,150,gato,la,l,1.2042,,2902.5485,2902.5494,-0.015740712,-0.39444443,0,0,0,,0,168,168,33,1,,,
,,,,,,fa14d2540c44d6a1c0861f96,66a626ef09d4e21e1a8894ec,67376810ed4bd524f10c8827,2024-11-15_09h37.52.434,Tarea de género gramatical,2024.2.2,Win32,60.97560976,,,,,,,,,,,,,,,,,,,,,,,,2902.5501,2904.163,a,1,[],[],[],[],[],[],[],0.9334,1,2904.1632,2904.6629,,,,,,1037,MAS,AGR,150,coco,el,l,0.9334,,2904.663,2904.6631,-0.015740712,-0.39444443,0,0,0,,0,169,169,136,1,,,
,,,,,,fa14d2540c44d6a1c0861f96,66a626ef09d4e21e1a8894ec,67376810ed4bd524f10c8827,2024-11-15_09h37.52.434,Tarea de género gramatical,2024.2.2,Win32,60.97560976,,,,,,,,,,,,,,,,,,,,,,,,2904.6645,2906.0789,l,1,[],[],[],[],[],[],[],0.7442,1,2906.0791,2906.5788,,,,,,1227,FEM,CON,150,tienda,,a,0.7442,,2906.5789,2906.5791,-0.015740712,-0.39444443,0,0,0,,0,170,170,326,1,,,
,,,,,,fa14d2540c44d6a1c0861f96,66a626ef09d4e21e1a8894ec,67376810ed4bd524f10c8827,2024-11-15_09h37.52.434,Tarea de género gramatical,2024.2.2,Win32,60.97560976,,,,,,,,,,,,,,,,,,,,,,,,2906.5804,2908.0798,l,1,[],[],[],[],[],[],[],0.8309,1,2908.0799,2908.5785,,,,,,1197,FEM,CON,150,manta,,a,0.8309,,2908.5787,2908.5788,-0.015740712,-0.39444443,0,0,0,,0,171,171,296,1,,,
,,,,,,fa14d2540c44d6a1c0861f96,66a626ef09d4e21e1a8894ec,67376810ed4bd524f10c8827,2024-11-15_09h37.52.434,Tarea de género gramatical,2024.2.2,Win32,60.97560976,,,,,,,,,,,,,,,,,,,,,,,,2908.5803,2909.7945,a,1,[],[],[],[],[],[],[],0.5355,1,2909.7946,2910.2943,,,,,,936,MAS,CON,150,dedo,,l,0.5355,,2910.2943,2910.2945,-0.015740712,-0.39444443,0,0,0,,0,172,172,35,1,,,
,,,,,,fa14d2540c44d6a1c0861f96,66a626ef09d4e21e1a8894ec,67376810ed4bd524f10c8827,2024-11-15_09h37.52.434,Tarea de género gramatical,2024.2.2,Win32,60.97560976,,,,,,,,,,,,,,,,,,,,,,,,2910.296,2911.5606,a,1,[],[],[],[],[],[],[],0.5946,1,2911.5608,2912.0602,,,,,,1043,MAS,AGR,150,faro,el,l,0.5946,,2912.0619,2912.0627,-0.015740712,-0.39444443,0,0,0,,0,173,173,142,1,,,
,,,,,,fa14d2540c44d6a1c0861f96,66a626ef09d4e21e1a8894ec,67376810ed4bd524f10c8827,2024-11-15_09h37.52.434,Tarea de género gramatical,2024.2.2,Win32,60.97560976,,,,,,,,,,,,,,,,,,,,,,,,2912.0635,2913.5438,l,1,[],[],[],[],[],[],[],0.8073,1,2913.544,2914.0431,,,,,,1275,FEM,CON,150,cadena,,a,0.8073,,2914.0431,2914.0433,-0.015740712,-0.39444443,0,0,0,,0,174,174,374,1,,,
,,,,,,fa14d2540c44d6a1c0861f96,66a626ef09d4e21e1a8894ec,67376810ed4bd524f10c8827,2024-11-15_09h37.52.434,Tarea de género gramatical,2024.2.2,Win32,60.97560976,,,,,,,,,,,,,,,,,,,,,,,,2914.0451,2915.3265,a,1,[],[],[],[],[],[],[],0.6097,1,2915.3267,2915.8258,,,,,,1120,MAS,DIS,150,huevo,la,l,0.6097,,2915.8259,2915.826,-0.015740712,-0.39444443,0,0,0,,0,175,175,219,1,,,
,,,,,,fa14d2540c44d6a1c0861f96,66a626ef09d4e21e1a8894ec,67376810ed4bd524f10c8827,2024-11-15_09h37.52.434,Tarea de género gramatical,2024.2.2,Win32,60.97560976,,,,,,,,,,,,,,,,,,,,,,,,2915.8274,2916.992,a,1,[],[],[],[],[],[],[],0.4845,1,2916.9921,2917.4918,,,,,,1349,MAS,AGR,150,payaso,el,l,0.4845,,2917.4919,2917.4921,-0.015740712,-0.39444443,0,0,0,,0,176,176,448,1,,,
,,,,,,fa14d2540c44d6a1c0861f96,66a626ef09d4e21e1a8894ec,67376810ed4bd524f10c8827,2024-11-15_09h37.52.434,Tarea de género gramatical,2024.2.2,Win32,60.97560976,,,,,,,,,,,,,,,,,,,,,,,,2917.4934,2918.6415,l,1,[],[],[],[],[],[],[],0.4754,1,2918.6416,2919.1413,,,,,,973,FEM,DIS,150,roca,el,a,0.4754,,2919.1429,2919.1437,-0.015740712,-0.39444443,0,0,0,,0,177,177,72,1,,,
,,,,,,fa14d2540c44d6a1c0861f96,66a626ef09d4e21e1a8894ec,67376810ed4bd524f10c8827,2024-11-15_09h37.52.434,Tarea de género gramatical,2024.2.2,Win32,60.97560976,,,,,,,,,,,,,,,,,,,,,,,,2919.1446,2920.6241,a,1,[],[],[],[],[],[],[],0.8077,1,2920.6243,2921.1239,,,,,,1092,MAS,CON,150,grupo,,l,0.8077,,2921.124,2921.1241,-0.015740712,-0.39444443,0,0,0,,0,178,178,191,1,,,
,,,,,,fa14d2540c44d6a1c0861f96,66a626ef09d4e21e1a8894ec,67376810ed4bd524f10c8827,2024-11-15_09h37.52.434,Tarea de género gramatical,2024.2.2,Win32,60.97560976,,,,,,,,,,,,,,,,,,,,,,,,2921.1255,2922.3568,l,0,[],[],[],[],[],[],[],0.5579,0,2922.358,2922.8567,,,,,,1048,MAS,DIS,150,surf,la,l,0.5579,,2922.8567,2922.8569,-0.015740712,-0.39444443,0,0,0,,0,179,179,147,1,,,
,,,,,,fa14d2540c44d6a1c0861f96,66a626ef09d4e21e1a8894ec,67376810ed4bd524f10c8827,2024-11-15_09h37.52.434,Tarea de género gramatical,2024.2.2,Win32,60.97560976,,,,,,,,,,,,,,,,,,,,,,,,2922.8583,2924.0895,l,1,[],[],[],[],[],[],[],0.5604,1,2924.0906,2924.5894,,,,,,992,FEM,AGR,150,masa,la,a,0.5604,,2924.5894,2924.5897,-0.015740712,-0.39444443,0,0,0,,0,180,180,91,1,,,
,,,,,,fa14d2540c44d6a1c0861f96,66a626ef09d4e21e1a8894ec,67376810ed4bd524f10c8827,2024-11-15_09h37.52.434,Tarea de género gramatical,2024.2.2,Win32,60.97560976,,,,,,,,,,,,,,,,,,,,,,,,2924.5912,2925.7736,l,1,[],[],[],[],[],[],[],0.5145,1,2925.7737,2926.274,,,,,,1022,FEM,AGR,150,loca,la,a,0.5145,,2926.2741,2926.2742,-0.015740712,-0.39444443,0,0,0,,0,181,181,121,1,,,
,,,,,,fa14d2540c44d6a1c0861f96,66a626ef09d4e21e1a8894ec,67376810ed4bd524f10c8827,2024-11-15_09h37.52.434,Tarea de género gramatical,2024.2.2,Win32,60.97560976,,,,,,,,,,,,,,,,,,,,,,,,2926.2753,2927.3561,l,1,[],[],[],[],[],[],[],0.4033,1,2927.3563,2927.8552,,,,,,1196,FEM,AGR,150,feria,la,a,0.4033,,2927.8569,2927.8579,-0.015740712,-0.39444443,0,0,0,,0,182,182,295,1,,,
,,,,,,fa14d2540c44d6a1c0861f96,66a626ef09d4e21e1a8894ec,67376810ed4bd524f10c8827,2024-11-15_09h37.52.434,Tarea de género gramatical,2024.2.2,Win32,60.97560976,,,,,,,,,,,,,,,,,,,,,,,,2927.8589,2928.9713,l,1,[],[],[],[],[],[],[],0.4356,1,2928.9715,2929.4711,,,,,,1328,FEM,AGR,150,jugada,la,a,0.4356,,2929.4712,2929.4713,-0.015740712,-0.39444443,0,0,0,,0,183,183,427,1,,,
,,,,,,fa14d2540c44d6a1c0861f96,66a626ef09d4e21e1a8894ec,67376810ed4bd524f10c8827,2024-11-15_09h37.52.434,Tarea de género gramatical,2024.2.2,Win32,60.97560976,,,,,,,,,,,,,,,,,,,,,,,,2929.4728,2930.6206,l,0,[],[],[],[],[],[],[],0.4697,0,2930.6218,2931.1212,,,,,,1222,MAS,DIS,150,minuto,la,l,0.4697,,2931.1213,2931.1215,-0.015740712,-0.39444443,0,0,0,,0,184,184,321,1,,,
,,,,,,fa14d2540c44d6a1c0861f96,66a626ef09d4e21e1a8894ec,67376810ed4bd524f10c8827,2024-11-15_09h37.52.434,Tarea de género gramatical,2024.2.2,Win32,60.97560976,,,,,,,,,,,,,,,,,,,,,,,,2931.1233,2932.4535,a,1,[],[],[],[],[],[],[],0.6518,1,2932.4544,2932.9532,,,,,,1204,MAS,DIS,150,tiempo,la,l,0.6518,,2932.9534,2932.9535,-0.015740712,-0.39444443,0,0,0,,0,185,185,303,1,,,
,,,,,,fa14d2540c44d6a1c0861f96,66a626ef09d4e21e1a8894ec,67376810ed4bd524f10c8827,2024-11-15_09h37.52.434,Tarea de género gramatical,2024.2.2,Win32,60.97560976,,,,,,,,,,,,,,,,,,,,,,,,2932.9548,2934.0702,l,1,[],[],[],[],[],[],[],0.4374,1,2934.0704,2934.5693,,,,,,915,FEM,CON,150,cama,,a,0.4374,,2934.5708,2934.5716,-0.015740712,-0.39444443,0,0,0,,0,186,186,14,1,,,
,,,,,,fa14d2540c44d6a1c0861f96,66a626ef09d4e21e1a8894ec,67376810ed4bd524f10c8827,2024-11-15_09h37.52.434,Tarea de género gramatical,2024.2.2,Win32,60.97560976,,,,,,,,,,,,,,,,,,,,,,,,2934.5724,2935.969,a,1,[],[],[],[],[],[],[],0.7253,1,2935.9691,2936.4687,,,,,,971,MAS,AGR,150,pozo,el,l,0.7253,,2936.4688,2936.469,-0.015740712,-0.39444443,0,0,0,,0,187,187,70,1,,,
,,,,,,fa14d2540c44d6a1c0861f96,66a626ef09d4e21e1a8894ec,67376810ed4bd524f10c8827,2024-11-15_09h37.52.434,Tarea de género gramatical,2024.2.2,Win32,60.97560976,,,,,,,,,,,,,,,,,,,,,,,,2936.4704,2937.7182,a,1,[],[],[],[],[],[],[],0.5787,1,2937.7184,2938.2181,,,,,,912,MAS,CON,150,plan,,l,0.5787,,2938.2182,2938.2184,-0.015740712,-0.39444443,0,0,0,,0,188,188,11,1,,,
,,,,,,fa14d2540c44d6a1c0861f96,66a626ef09d4e21e1a8894ec,67376810ed4bd524f10c8827,2024-11-15_09h37.52.434,Tarea de género gramatical,2024.2.2,Win32,60.97560976,,,,,,,,,,,,,,,,,,,,,,,,2938.2197,2939.851,a,1,[],[],[],[],[],[],[],0.9621,1,2939.8511,2940.3506,,,,,,959,MAS,AGR,150,lobo,el,l,0.9621,,2940.3507,2940.351,-0.015740712,-0.39444443,0,0,0,,0,189,189,58,1,,,
,,,,,,fa14d2540c44d6a1c0861f96,66a626ef09d4e21e1a8894ec,67376810ed4bd524f10c8827,2024-11-15_09h37.52.434,Tarea de género gramatical,2024.2.2,Win32,60.97560976,,,,,,,,,,,,,,,,,,,,,,,,2940.3523,2941.6508,a,1,[],[],[],[],[],[],[],0.6254,1,2941.651,2942.15,,,,,,911,MAS,AGR,150,país,el,l,0.6254,,2942.1501,2942.1502,-0.015740712,-0.39444443,0,0,0,,0,190,190,10,1,,,
,,,,,,fa14d2540c44d6a1c0861f96,66a626ef09d4e21e1a8894ec,67376810ed4bd524f10c8827,2024-11-15_09h37.52.434,Tarea de género gramatical,2024.2.2,Win32,60.97560976,,,,,,,,,,,,,,,,,,,,,,,,2942.1517,2943.7165,a,1,[],[],[],[],[],[],[],0.8933,1,2943.7167,2944.216,,,,,,1044,MAS,CON,150,amor,,l,0.8933,,2944.2176,2944.2186,-0.015740712,-0.39444443,0,0,0,,0,191,191,143,1,,,
,,,,,,fa14d2540c44d6a1c0861f96,66a626ef09d4e21e1a8894ec,67376810ed4bd524f10c8827,2024-11-15_09h37.52.434,Tarea de género gramatical,2024.2.2,Win32,60.97560976,,,,,,,,,,,,,,,,,,,,,,,,2944.2195,2946.0654,a,1,[],[],[],[],[],[],[],1.167,1,2946.0656,2946.5653,,,,,,1271,MAS,AGR,150,sonido,el,l,1.167,,2946.5654,2946.5655,-0.015740712,-0.39444443,0,0,0,,0,192,192,370,1,,,
,,,,,,fa14d2540c44d6a1c0861f96,66a626ef09d4e21e1a8894ec,67376810ed4bd524f10c8827,2024-11-15_09h37.52.434,Tarea de género gramatical,2024.2.2,Win32,60.97560976,,,,,,,,,,,,,,,,,,,,,,,,2946.567,2948.3983,a,1,[],[],[],[],[],[],[],1.1631,1,2948.3985,2948.8983,,,,,,1193,MAS,AGR,150,patio,el,l,1.1631,,2948.8985,2948.8986,-0.015740712,-0.39444443,0,0,0,,0,193,193,292,1,,,
,,,,,,fa14d2540c44d6a1c0861f96,66a626ef09d4e21e1a8894ec,67376810ed4bd524f10c8827,2024-11-15_09h37.52.434,Tarea de género gramatical,2024.2.2,Win32,60.97560976,,,,,,,,,,,,,,,,,,,,,,,,2948.9002,2950.2478,a,1,[],[],[],[],[],[],[],0.6742,1,2950.248,2950.7471,,,,,,1198,MAS,DIS,150,botón,la,l,0.6742,,2950.7471,2950.7474,-0.015740712,-0.39444443,0,0,0,,0,194,194,297,1,,,
,,,,,,fa14d2540c44d6a1c0861f96,66a626ef09d4e21e1a8894ec,67376810ed4bd524f10c8827,2024-11-15_09h37.52.434,Tarea de género gramatical,2024.2.2,Win32,60.97560976,,,,,,,,,,,,,,,,,,,,,,,,2950.7489,2952.4473,a,1,[],[],[],[],[],[],[],1.0248,1,2952.4475,2952.9464,,,,,,1181,MAS,AGR,150,actor,el,l,1.0248,,2952.9482,2952.949,-0.015740712,-0.39444443,0,0,0,,0,195,195,280,1,,,
,,,,,,fa14d2540c44d6a1c0861f96,66a626ef09d4e21e1a8894ec,67376810ed4bd524f10c8827,2024-11-15_09h37.52.434,Tarea de género gramatical,2024.2.2,Win32,60.97560976,,,,,,,,,,,,,,,,,,,,,,,,2952.9498,2954.4957,l,1,[],[],[],[],[],[],[],0.8789,1,2954.4959,2954.9956,,,,,,1113,FEM,CON,150,magia,,a,0.8789,,2954.9957,2954.996,-0.015740712,-0.39444443,0,0,0,,0,196,196,212,1,,,
,,,,,,fa14d2540c44d6a1c0861f96,66a626ef09d4e21e1a8894ec,67376810ed4bd524f10c8827,2024-11-15_09h37.52.434,Tarea de género gramatical,2024.2.2,Win32,60.97560976,,,,,,,,,,,,,,,,,,,,,,,,2954.9973,2956.4956,a,1,[],[],[],[],[],[],[],0.825,1,2956.4957,2956.995,,,,,,905,MAS,AGR,150,tipo,el,l,0.825,,2956.995,2956.9952,-0.015740712,-0.39444443,0,0,0,,0,197,197,4,1,,,
,,,,,,fa14d2540c44d6a1c0861f96,66a626ef09d4e21e1a8894ec,67376810ed4bd524f10c8827,2024-11-15_09h37.52.434,Tarea de género gramatical,2024.2.2,Win32,60.97560976,,,,,,,,,,,,,,,,,,,,,,,,2956.9966,2958.1447,a,1,[],[],[],[],[],[],[],0.4672,1,2958.1449,2958.6443,,,,,,1290,MAS,CON,150,rostro,,l,0.4672,,2958.6444,2958.6446,-0.015740712,-0.39444443,0,0,0,,0,198,198,389,1,,,
,,,,,,fa14d2540c44d6a1c0861f96,66a626ef09d4e21e1a8894ec,67376810ed4bd524f10c8827,2024-11-15_09h37.52.434,Tarea de género gramatical,2024.2.2,Win32,60.97560976,,,,,,,,,,,,,,,,,,,,,,,,2958.6461,2959.6942,a,1,[],[],[],[],[],[],[],0.3723,1,2959.6944,2960.194,,,,,,1235,MAS,AGR,150,montón,el,l,0.3723,,2960.1942,2960.1944,-0.015740712,-0.39444443,0,0,0,,0,199,199,334,1,,,
,,,,,,fa14d2540c44d6a1c0861f96,66a626ef09d4e21e1a8894ec,67376810ed4bd524f10c8827,2024-11-15_09h37.52.434,Tarea de género gramatical,2024.2.2,Win32,60.97560976,,,,,,,,,,,,,,,,,,,,,,,,2960.1961,2961.2934,l,0,[],[],[],[],[],[],[],0.4294,0,2961.2943,2961.7935,,,,,,1258,MAS,DIS,150,motivo,la,l,0.4294,,2961.795,2961.7958,-0.015740712,-0.39444443,0,0,0,,0,200,200,357,1,,,
,,,,,,fa14d2540c44d6a1c0861f96,66a626ef09d4e21e1a8894ec,67376810ed4bd524f10c8827,2024-11-15_09h37.52.434,Tarea de género gramatical,2024.2.2,Win32,60.97560976,,,,,,,,,,,,,,,,,,,,,,,,2961.7965,2963.2763,a,1,[],[],[],[],[],[],[],0.8095,1,2963.2774,2963.7769,,,,,,1150,MAS,DIS,150,cerdo,la,l,0.8095,,2963.7769,2963.7772,-0.015740712,-0.39444443,0,0,0,,0,201,201,249,1,,,
,,,,,,fa14d2540c44d6a1c0861f96,66a626ef09d4e21e1a8894ec,67376810ed4bd524f10c8827,2024-11-15_09h37.52.434,Tarea de género gramatical,2024.2.2,Win32,60.97560976,,,,,,,,,,,,,,,,,,,,,,,,2963.7785,2965.0757,a,1,[],[],[],[],[],[],[],0.6254,1,2965.0758,2965.5754,,,,,,1325,MAS,AGR,150,chiste,el,l,0.6254,,2965.5755,2965.5757,-0.015740712,-0.39444443,0,0,0,,0,202,202,424,1,,,
,,,,,,fa14d2540c44d6a1c0861f96,66a626ef09d4e21e1a8894ec,67376810ed4bd524f10c8827,2024-11-15_09h37.52.434,Tarea de género gramatical,2024.2.2,Win32,60.97560976,,,,,,,,,,,,,,,,,,,,,,,,2965.5771,2966.825,l,1,[],[],[],[],[],[],[],0.5772,1,2966.8251,2967.3249,,,,,,1004,FEM,AGR,150,vela,la,a,0.5772,,2967.325,2967.3252,-0.015740712,-0.39444443,0,0,0,,0,203,203,103,1,,,
,,,,,,fa14d2540c44d6a1c0861f96,66a626ef09d4e21e1a8894ec,67376810ed4bd524f10c8827,2024-11-15_09h37.52.434,Tarea de género gramatical,2024.2.2,Win32,60.97560976,,,,,,,,,,,,,,,,,,,,,,,,2967.3268,2969.2575,l,1,[],[],[],[],[],[],[],1.2573,1,2969.2577,2969.7573,,,,,,1123,FEM,DIS,150,plata,el,a,1.2573,,2969.7591,2969.7598,-0.015740712,-0.39444443,0,0,0,,0,204,204,222,1,,,
,,,,,,fa14d2540c44d6a1c0861f96,66a626ef09d4e21e1a8894ec,67376810ed4bd524f10c8827,2024-11-15_09h37.52.434,Tarea de género gramatical,2024.2.2,Win32,60.97560976,,,,,,,,,,,,,,,,,,,,,,,,2969.7607,2971.6401,a,1,[],[],[],[],[],[],[],1.2011,1,2971.6404,2972.1399,,,,,,1151,MAS,AGR,150,dueño,el,l,1.2011,,2972.1401,2972.1402,-0.015740712,-0.39444443,0,0,0,,0,205,205,250,1,,,
,,,,,,fa14d2540c44d6a1c0861f96,66a626ef09d4e21e1a8894ec,67376810ed4bd524f10c8827,2024-11-15_09h37.52.434,Tarea de género gramatical,2024.2.2,Win32,60.97560976,,,,,,,,,,,,,,,,,,,,,,,,2972.1417,2974.056,l,1,[],[],[],[],[],[],[],1.2399,1,2974.0562,2974.5563,,,,,,1321,FEM,DIS,150,novela,el,a,1.2399,,2974.5565,2974.5566,-0.015740712,-0.39444443,0,0,0,,0,206,206,420,1,,,
,,,,,,fa14d2540c44d6a1c0861f96,66a626ef09d4e21e1a8894ec,67376810ed4bd524f10c8827,2024-11-15_09h37.52.434,Tarea de género gramatical,2024.2.2,Win32,60.97560976,,,,,,,,,,,,,,,,,,,,,,,,2974.5581,2975.7056,l,1,[],[],[],[],[],[],[],0.4772,1,2975.7057,2976.2056,,,,,,980,FEM,AGR,150,vaca,la,a,0.4772,,2976.2057,2976.2058,-0.015740712,-0.39444443,0,0,0,,0,207,207,79,1,,,
,,,,,,fa14d2540c44d6a1c0861f96,66a626ef09d4e21e1a8894ec,67376810ed4bd524f10c8827,2024-11-15_09h37.52.434,Tarea de género gramatical,2024.2.2,Win32,60.97560976,,,,,,,,,,,,,,,,,,,,,,,,2976.2074,2977.4214,a,1,[],[],[],[],[],[],[],0.5344,1,2977.4215,2977.9213,,,,,,1126,MAS,DIS,150,color,la,l,0.5344,,2977.9214,2977.9215,-0.015740712,-0.39444443,0,0,0,,0,208,208,225,1,,,
,,,,,,fa14d2540c44d6a1c0861f96,66a626ef09d4e21e1a8894ec,67376810ed4bd524f10c8827,2024-11-15_09h37.52.434,Tarea de género gramatical,2024.2.2,Win32,60.97560976,,,,,,,,,,,,,,,,,,,,,,,,2977.9229,2979.0214,a,1,[],[],[],[],[],[],[],0.423,1,2979.0216,2979.5211,,,,,,1164,MAS,CON,150,pollo,,l,0.423,,2979.5227,2979.5235,-0.015740712,-0.39444443,0,0,0,,0,209,209,263,1,,,
,,,,,,fa14d2540c44d6a1c0861f96,66a626ef09d4e21e1a8894ec,67376810ed4bd524f10c8827,2024-11-15_09h37.52.434,Tarea de género gramatical,2024.2.2,Win32,60.97560976,,,,,,,,,,,,,,,,,,,,,,,,2979.5243,2980.7036,l,1,[],[],[],[],[],[],[],0.5019,1,2980.7037,2981.2036,,,,,,1009,FEM,DIS,150,gota,el,a,0.5019,,2981.2037,2981.2038,-0.015740712,-0.39444443,0,0,0,,0,210,210,108,1,,,
,,,,,,fa14d2540c44d6a1c0861f96,66a626ef09d4e21e1a8894ec,67376810ed4bd524f10c8827,2024-11-15_09h37.52.434,Tarea de género gramatical,2024.2.2,Win32,60.97560976,,,,,,,,,,,,,,,,,,,,,,,,2981.2053,2982.4031,l,1,[],[],[],[],[],[],[],0.5192,1,2982.4032,2982.9029,,,,,,1249,FEM,DIS,150,prensa,el,a,0.5192,,2982.903,2982.9032,-0.015740712,-0.39444443,0,0,0,,0,211,211,348,1,,,
,,,,,,fa14d2540c44d6a1c0861f96,66a626ef09d4e21e1a8894ec,67376810ed4bd524f10c8827,2024-11-15_09h37.52.434,Tarea de género gramatical,2024.2.2,Win32,60.97560976,,,,,,,,,,,,,,,,,,,,,,,,2982.9045,2984.0359,a,1,[],[],[],[],[],[],[],0.4491,1,2984.036,2984.5356,,,,,,1104,MAS,CON,150,papel,,l,0.4491,,2984.5356,2984.5358,-0.015740712,-0.39444443,0,0,0,,0,212,212,203,1,,,
,,,,,,fa14d2540c44d6a1c0861f96,66a626ef09d4e21e1a8894ec,67376810ed4bd524f10c8827,2024-11-15_09h37.52.434,Tarea de género gramatical,2024.2.2,Win32,60.97560976,,,,,,,,,,,,,,,,,,,,,,,,2984.5372,2985.8019,a,1,[],[],[],[],[],[],[],0.5913,1,2985.8019,2986.3017,,,,,,1014,MAS,CON,150,menú,,l,0.5913,,2986.3035,2986.3043,-0.015740712,-0.39444443,0,0,0,,0,213,213,113,1,,,
,,,,,,fa14d2540c44d6a1c0861f96,66a626ef09d4e21e1a8894ec,67376810ed4bd524f10c8827,2024-11-15_09h37.52.434,Tarea de género gramatical,2024.2.2,Win32,60.97560976,,,,,,,,,,,,,,,,,,,,,,,,2986.3053,2987.568,a,1,[],[],[],[],[],[],[],0.5906,1,2987.5681,2988.0678,,,,,,1186,MAS,DIS,150,reino,la,l,0.5906,,2988.0679,2988.0681,-0.015740712,-0.39444443,0,0,0,,0,214,214,285,1,,,
,,,,,,fa14d2540c44d6a1c0861f96,66a626ef09d4e21e1a8894ec,67376810ed4bd524f10c8827,2024-11-15_09h37.52.434,Tarea de género gramatical,2024.2.2,Win32,60.97560976,,,,,,,,,,,,,,,,,,,,,,,,2988.0693,2989.1342,a,1,[],[],[],[],[],[],[],0.3867,1,2989.1344,2989.6345,,,,,,1260,MAS,CON,150,puente,,l,0.3867,,2989.6346,2989.6347,-0.015740712,-0.39444443,0,0,0,,0,215,215,359,1,,,
,,,,,,fa14d2540c44d6a1c0861f96,66a626ef09d4e21e1a8894ec,67376810ed4bd524f10c8827,2024-11-15_09h37.52.434,Tarea de género gramatical,2024.2.2,Win32,60.97560976,,,,,,,,,,,,,,,,,,,,,,,,2989.6361,2990.7668,l,1,[],[],[],[],[],[],[],0.4632,1,2990.767,2991.2671,,,,,,902,FEM,AGR,150,vida,la,a,0.4632,,2991.2672,2991.2673,-0.015740712,-0.39444443,0,0,0,,0,216,216,1,1,,,
,,,,,,fa14d2540c44d6a1c0861f96,66a626ef09d4e21e1a8894ec,67376810ed4bd524f10c8827,2024-11-15_09h37.52.434,Tarea de género gramatical,2024.2.2,Win32,60.97560976,,,,,,,,,,,,,,,,,,,,,,,,2991.2688,2992.3836,a,1,[],[],[],[],[],[],[],0.4409,1,2992.3838,2992.8829,,,,,,1246,MAS,DIS,150,juicio,la,l,0.4409,,2992.883,2992.8832,-0.015740712,-0.39444443,0,0,0,,0,217,217,345,1,,,
,,,,,,fa14d2540c44d6a1c0861f96,66a626ef09d4e21e1a8894ec,67376810ed4bd524f10c8827,2024-11-15_09h37.52.434,Tarea de género gramatical,2024.2.2,Win32,60.97560976,,,,,,,,,,,,,,,,,,,,,,,,2992.8844,2994.449,a,1,[],[],[],[],[],[],[],0.8886,1,2994.4492,2994.9488,,,,,,916,MAS,DIS,150,baño,la,l,0.8886,,2994.9501,2994.9508,-0.015740712,-0.39444443,0,0,0,,0,218,218,15,1,,,
,,,,,,fa14d2540c44d6a1c0861f96,66a626ef09d4e21e1a8894ec,67376810ed4bd524f10c8827,2024-11-15_09h37.52.434,Tarea de género gramatical,2024.2.2,Win32,60.97560976,,,,,,,,,,,,,,,,,,,,,,,,2994.9521,2996.1984,a,1,[],[],[],[],[],[],[],0.57,1,2996.1986,2996.6985,,,,,,942,MAS,CON,150,show,,l,0.57,,2996.6987,2996.6987,-0.015740712,-0.39444443,0,0,0,,0,219,219,41,1,,,
,,,,,,fa14d2540c44d6a1c0861f96,66a626ef09d4e21e1a8894ec,67376810ed4bd524f10c8827,2024-11-15_09h37.52.434,Tarea de género gramatical,2024.2.2,Win32,60.97560976,,,,,,,,,,,,,,,,,,,,,,,,2996.7002,2997.8478,l,1,[],[],[],[],[],[],[],0.4734,1,2997.848,2998.3477,,,,,,1316,FEM,AGR,150,colina,la,a,0.4734,,2998.3479,2998.348,-0.015740712,-0.39444443,0,0,0,,0,220,220,415,1,,,
,,,,,,fa14d2540c44d6a1c0861f96,66a626ef09d4e21e1a8894ec,67376810ed4bd524f10c8827,2024-11-15_09h37.52.434,Tarea de género gramatical,2024.2.2,Win32,60.97560976,,,,,,,,,,,,,,,,,,,,,,,,2998.3494,2999.6805,l,1,[],[],[],[],[],[],[],0.6611,1,2999.6807,3000.1804,,,,,,1255,FEM,DIS,150,mirada,el,a,0.6611,,3000.1805,3000.1807,-0.015740712,-0.39444443,0,0,0,,0,221,221,354,1,,,
,,,,,,fa14d2540c44d6a1c0861f96,66a626ef09d4e21e1a8894ec,67376810ed4bd524f10c8827,2024-11-15_09h37.52.434,Tarea de género gramatical,2024.2.2,Win32,60.97560976,,,,,,,,,,,,,,,,,,,,,,,,3000.1822,3001.2802,l,1,[],[],[],[],[],[],[],0.4224,1,3001.2803,3001.7802,,,,,,1256,FEM,AGR,150,piedra,la,a,0.4224,,3001.7816,3001.7825,-0.015740712,-0.39444443,0,0,0,,0,222,222,355,1,,,
,,,,,,fa14d2540c44d6a1c0861f96,66a626ef09d4e21e1a8894ec,67376810ed4bd524f10c8827,2024-11-15_09h37.52.434,Tarea de género gramatical,2024.2.2,Win32,60.97560976,,,,,,,,,,,,,,,,,,,,,,,,3001.7833,3002.9635,a,1,[],[],[],[],[],[],[],0.5077,1,3002.9636,3003.4625,,,,,,1097,MAS,AGR,150,avión,el,l,0.5077,,3003.4626,3003.4629,-0.015740712,-0.39444443,0,0,0,,0,223,223,196,1,,,
,,,,,,fa14d2540c44d6a1c0861f96,66a626ef09d4e21e1a8894ec,67376810ed4bd524f10c8827,2024-11-15_09h37.52.434,Tarea de género gramatical,2024.2.2,Win32,60.97560976,,,,,,,,,,,,,,,,,,,,,,,,3003.4644,3004.5956,a,1,[],[],[],[],[],[],[],0.4528,1,3004.5957,3005.096,,,,,,1230,MAS,CON,150,estado,,l,0.4528,,3005.096,3005.0962,-0.015740712,-0.39444443,0,0,0,,0,224,224,329,1,,,
,,,,,,fa14d2540c44d6a1c0861f96,66a626ef09d4e21e1a8894ec,67376810ed4bd524f10c8827,2024-11-15_09h37.52.434,Tarea de género gramatical,2024.2.2,Win32,60.97560976,,,,,,,,,,,,,,,,,,,,,,,,3005.0976,3006.3452,a,1,[],[],[],[],[],[],[],0.5693,1,3006.3453,3006.8447,,,,,,1090,MAS,DIS,150,campo,la,l,0.5693,,3006.8449,3006.845,-0.015740712,-0.39444443,0,0,0,,0,225,225,189,1,,,
,,,,,,fa14d2540c44d6a1c0861f96,66a626ef09d4e21e1a8894ec,67376810ed4bd524f10c8827,2024-11-15_09h37.52.434,Tarea de género gramatical,2024.2.2,Win32,60.97560976,,,,,,,,,,,,,,,,,,,,,,,,3006.8462,3008.5775,l,1,[],[],[],[],[],[],[],1.0584,1,3008.5777,3009.078,,,,,,1263,FEM,CON,150,unidad,,a,1.0584,,3009.0782,3009.0783,-0.015740712,-0.39444443,0,0,0,,0,226,226,362,1,,,
,,,,,,fa14d2540c44d6a1c0861f96,66a626ef09d4e21e1a8894ec,67376810ed4bd524f10c8827,2024-11-15_09h37.52.434,Tarea de género gramatical,2024.2.2,Win32,60.97560976,,,,,,,,,,,,,,,,,,,,,,,,3009.0799,3010.1945,a,1,[],[],[],[],[],[],[],0.4471,1,3010.1947,3010.6935,,,,,,1169,MAS,AGR,150,primo,el,l,0.4471,,3010.6951,3010.6959,-0.015740712,-0.39444443,0,0,0,,0,227,227,268,1,,,
,,,,,,fa14d2540c44d6a1c0861f96,66a626ef09d4e21e1a8894ec,67376810ed4bd524f10c8827,2024-11-15_09h37.52.434,Tarea de género gramatical,2024.2.2,Win32,60.97560976,,,,,,,,,,,,,,,,,,,,,,,,3010.6968,3011.8597,l,1,[],[],[],[],[],[],[],0.495,1,3011.8598,3012.3595,,,,,,1322,FEM,AGR,150,rutina,la,a,0.495,,3012.3596,3012.3598,-0.015740712,-0.39444443,0,0,0,,0,228,228,421,1,,,
,,,,,,fa14d2540c44d6a1c0861f96,66a626ef09d4e21e1a8894ec,67376810ed4bd524f10c8827,2024-11-15_09h37.52.434,Tarea de género gramatical,2024.2.2,Win32,60.97560976,,,,,,,,,,,,,,,,,,,,,,,,3012.3609,3013.5098,l,1,[],[],[],[],[],[],[],0.473,1,3013.51,3014.0096,,,,,,908,FEM,AGR,150,idea,la,a,0.473,,3014.0097,3014.0098,-0.015740712,-0.39444443,0,0,0,,0,229,229,7,1,,,
,,,,,,fa14d2540c44d6a1c0861f96,66a626ef09d4e21e1a8894ec,67376810ed4bd524f10c8827,2024-11-15_09h37.52.434,Tarea de género gramatical,2024.2.2,Win32,60.97560976,,,,,,,,,,,,,,,,,,,,,,,,3014.0113,3015.2586,l,1,[],[],[],[],[],[],[],0.5706,1,3015.2588,3015.7583,,,,,,1185,FEM,CON,150,mafia,,a,0.5706,,3015.7584,3015.7586,-0.015740712,-0.39444443,0,0,0,,0,230,230,284,1,,,
,,,,,,fa14d2540c44d6a1c0861f96,66a626ef09d4e21e1a8894ec,67376810ed4bd524f10c8827,2024-11-15_09h37.52.434,Tarea de género gramatical,2024.2.2,Win32,60.97560976,,,,,,,,,,,,,,,,,,,,,,,,3015.7602,3016.975,l,1,[],[],[],[],[],[],[],0.5365,1,3016.9752,3017.4745,,,,,,938,FEM,AGR,150,obra,la,a,0.5365,,3017.4762,3017.477,-0.015740712,-0.39444443,0,0,0,,0,231,231,37,1,,,
,,,,,,fa14d2540c44d6a1c0861f96,66a626ef09d4e21e1a8894ec,67376810ed4bd524f10c8827,2024-11-15_09h37.52.434,Tarea de género gramatical,2024.2.2,Win32,60.97560976,,,,,,,,,,,,,,,,,,,,,,,,3017.4778,3019.2073,l,1,[],[],[],[],[],[],[],1.0626,1,3019.2074,3019.707,,,,,,1226,FEM,AGR,150,música,la,a,1.0626,,3019.7071,3019.7074,-0.015740712,-0.39444443,0,0,0,,0,232,232,325,1,,,
,,,,,,fa14d2540c44d6a1c0861f96,66a626ef09d4e21e1a8894ec,67376810ed4bd524f10c8827,2024-11-15_09h37.52.434,Tarea de género gramatical,2024.2.2,Win32,60.97560976,,,,,,,,,,,,,,,,,,,,,,,,3019.7088,3020.8234,l,1,[],[],[],[],[],[],[],0.4396,1,3020.8235,3021.3232,,,,,,1310,FEM,AGR,150,piedad,la,a,0.4396,,3021.3232,3021.3235,-0.015740712,-0.39444443,0,0,0,,0,233,233,409,1,,,
,,,,,,fa14d2540c44d6a1c0861f96,66a626ef09d4e21e1a8894ec,67376810ed4bd524f10c8827,2024-11-15_09h37.52.434,Tarea de género gramatical,2024.2.2,Win32,60.97560976,,,,,,,,,,,,,,,,,,,,,,,,3021.3248,3022.4229,a,1,[],[],[],[],[],[],[],0.4189,1,3022.423,3022.923,,,,,,1289,MAS,AGR,150,tamaño,el,l,0.4189,,3022.9231,3022.9232,-0.015740712,-0.39444443,0,0,0,,0,234,234,388,1,,,
,,,,,,fa14d2540c44d6a1c0861f96,66a626ef09d4e21e1a8894ec,67376810ed4bd524f10c8827,2024-11-15_09h37.52.434,Tarea de género gramatical,2024.2.2,Win32,60.97560976,,,,,,,,,,,,,,,,,,,,,,,,3022.9246,3024.3389,a,1,[],[],[],[],[],[],[],0.7347,1,3024.3391,3024.8389,,,,,,1192,MAS,DIS,150,piano,la,l,0.7347,,3024.839,3024.8392,-0.015740712,-0.39444443,0,0,0,,0,235,235,291,1,,,
,,,,,,fa14d2540c44d6a1c0861f96,66a626ef09d4e21e1a8894ec,67376810ed4bd524f10c8827,2024-11-15_09h37.52.434,Tarea de género gramatical,2024.2.2,Win32,60.97560976,,,,,,,,,,,,,,,,,,,,,,,,3024.8408,3026.0719,l,1,[],[],[],[],[],[],[],0.56,1,3026.072,3026.5721,,,,,,1280,FEM,AGR,150,madera,la,a,0.56,,3026.5737,3026.5745,-0.015740712,-0.39444443,0,0,0,,0,236,236,379,1,,,
,,,,,,fa14d2540c44d6a1c0861f96,66a626ef09d4e21e1a8894ec,67376810ed4bd524f10c8827,2024-11-15_09h37.52.434,Tarea de género gramatical,2024.2.2,Win32,60.97560976,,,,,,,,,,,,,,,,,,,,,,,,3026.5754,3027.8043,a,1,[],[],[],[],[],[],[],0.5515,1,3027.8044,3028.3041,,,,,,1229,MAS,AGR,150,futuro,el,l,0.5515,,3028.3042,3028.3044,-0.015740712,-0.39444443,0,0,0,,0,237,237,328,1,,,
,,,,,,fa14d2540c44d6a1c0861f96,66a626ef09d4e21e1a8894ec,67376810ed4bd524f10c8827,2024-11-15_09h37.52.434,Tarea de género gramatical,2024.2.2,Win32,60.97560976,,,,,,,,,,,,,,,,,,,,,,,,3028.3058,3029.504,a,1,[],[],[],[],[],[],[],0.5177,1,3029.5041,3030.0036,,,,,,1313,MAS,AGR,150,diario,el,l,0.5177,,3030.0037,3030.0038,-0.015740712,-0.39444443,0,0,0,,0,238,238,412,1,,,
,,,,,,fa14d2540c44d6a1c0861f96,66a626ef09d4e21e1a8894ec,67376810ed4bd524f10c8827,2024-11-15_09h37.52.434,Tarea de género gramatical,2024.2.2,Win32,60.97560976,,,,,,,,,,,,,,,,,,,,,,,,3030.0052,3031.3699,l,1,[],[],[],[],[],[],[],0.6851,1,3031.37,3031.8702,,,,,,1333,FEM,DIS,150,huella,el,a,0.6851,,3031.8704,3031.8704,-0.015740712,-0.39444443,0,0,0,,0,239,239,432,1,,,
,,,,,,fa14d2540c44d6a1c0861f96,66a626ef09d4e21e1a8894ec,67376810ed4bd524f10c8827,2024-11-15_09h37.52.434,Tarea de género gramatical,2024.2.2,Win32,60.97560976,,,,,,,,,,,,,,,,,,,,,,,,3031.8725,3033.4856,l,1,[],[],[],[],[],[],[],0.9445,1,3033.4857,3033.9861,,,,,,909,FEM,CON,150,mamá,,a,0.9445,,3033.9878,3033.9885,-0.015740712,-0.39444443,0,0,0,,0,240,240,8,1,,,
,,,,,,fa14d2540c44d6a1c0861f96,66a626ef09d4e21e1a8894ec,67376810ed4bd524f10c8827,2024-11-15_09h37.52.434,Tarea de género gramatical,2024.2.2,Win32,60.97560976,,,,,,,,,,,,,,,,,,,,,,,,3033.9894,3035.2519,l,1,[],[],[],[],[],[],[],0.5872,1,3035.252,3035.7515,,,,,,1243,FEM,DIS,150,trampa,el,a,0.5872,,3035.7516,3035.7519,-0.015740712,-0.39444443,0,0,0,,0,241,241,342,1,,,
,,,,,,fa14d2540c44d6a1c0861f96,66a626ef09d4e21e1a8894ec,67376810ed4bd524f10c8827,2024-11-15_09h37.52.434,Tarea de género gramatical,2024.2.2,Win32,60.97560976,,,,,,,,,,,,,,,,,,,,,,,,3035.7537,3036.8346,l,1,[],[],[],[],[],[],[],0.4013,1,3036.8347,3037.3343,,,,,,945,FEM,CON,150,isla,,a,0.4013,,3037.3345,3037.3346,-0.015740712,-0.39444443,0,0,0,,0,242,242,44,1,,,
,,,,,,fa14d2540c44d6a1c0861f96,66a626ef09d4e21e1a8894ec,67376810ed4bd524f10c8827,2024-11-15_09h37.52.434,Tarea de género gramatical,2024.2.2,Win32,60.97560976,,,,,,,,,,,,,,,,,,,,,,,,3037.3361,3038.734,l,0,[],[],[],[],[],[],[],0.7218,0,3038.7352,3039.2339,,,,,,995,MAS,AGR,150,tomo,el,l,0.7218,,3039.2339,3039.2341,-0.015740712,-0.39444443,0,0,0,,0,243,243,94,1,,,
,,,,,,fa14d2540c44d6a1c0861f96,66a626ef09d4e21e1a8894ec,67376810ed4bd524f10c8827,2024-11-15_09h37.52.434,Tarea de género gramatical,2024.2.2,Win32,60.97560976,,,,,,,,,,,,,,,,,,,,,,,,3039.2355,3040.4169,l,1,[],[],[],[],[],[],[],0.5013,1,3040.4182,3040.9177,,,,,,1347,FEM,CON,150,lógica,,a,0.5013,,3040.9178,3040.918,-0.015740712,-0.39444443,0,0,0,,0,244,244,446,1,,,
,,,,,,fa14d2540c44d6a1c0861f96,66a626ef09d4e21e1a8894ec,67376810ed4bd524f10c8827,2024-11-15_09h37.52.434,Tarea de género gramatical,2024.2.2,Win32,60.97560976,,,,,,,,,,,,,,,,,,,,,,,,3040.9195,3042.0995,l,1,[],[],[],[],[],[],[],0.5021,1,3042.0996,3042.5993,,,,,,1136,FEM,AGR,150,deuda,la,a,0.5021,,3042.6008,3042.6016,-0.015740712,-0.39444443,0,0,0,,0,245,245,235,1,,,
,,,,,,fa14d2540c44d6a1c0861f96,66a626ef09d4e21e1a8894ec,67376810ed4bd524f10c8827,2024-11-15_09h37.52.434,Tarea de género gramatical,2024.2.2,Win32,60.97560976,,,,,,,,,,,,,,,,,,,,,,,,3042.6024,3043.9329,a,1,[],[],[],[],[],[],[],0.6582,1,3043.9331,3044.4328,,,,,,1282,MAS,DIS,150,teatro,la,l,0.6582,,3044.4329,3044.433,-0.015740712,-0.39444443,0,0,0,,0,246,246,381,1,,,
