counterbalancing_condition,consent_prescreening.block_1/declare_consent,consent_prescreening.block_1/age_years,consent_prescreening.block_1/gender,consent_prescreening.block_1/language_disorder,consent_prescreening.block_1/first_language,PROLIFIC_PID,STUDY_ID,SESSION_ID,date,expName,psychopyVersion,OS,frameRate,check_prescreening_answers.started,check_prescreening_answers.stopped,Instructions.started,Instructions.stopped,instr_done_keyboard.keys,instr_done_keyboard.rt,instr_done_keyboard.duration,instr_done_touch.x,instr_done_touch.y,instr_done_touch.leftButton,instr_done_touch.midButton,instr_done_touch.rightButton,instruction_pages.thisRepN,instruction_pages.thisTrialN,instruction_pages.thisN,instruction_pages.thisIndex,instruction_pages.ran,pageN,phase,instruct_text,has_image,instruct_image,presentTrial.started,presentTrial.stopped,response.keys,response.corr,response.rt,response.duration,touch_resp.x,touch_resp.y,touch_resp.leftButton,touch_resp.midButton,touch_resp.rightButton,touch_resp.time,touch_resp.clicked_name,rt,corr,feedback.started,feedback.stopped,practice_trials.thisRepN,practice_trials.thisTrialN,practice_trials.thisN,practice_trials.thisIndex,practice_trials.ran,TrialID,StimulusType,Condition,PrimeDuration,Prime,Flanker,corrAns,Break.started,Break.stopped,break_done_touch.x,break_done_touch.y,break_done_touch.leftButton,break_done_touch.midButton,break_done_touch.rightButton,break_done_keyboard.keys,experiment_trials.thisRepN,experiment_trials.thisTrialN,experiment_trials.thisN,experiment_trials.thisIndex,experiment_trials.ran,break_done_keyboard.rt,break_done_keyboard.duration,End.started,End.stopped
2,"[""over_18"",""comfortable"",""read_info"",""consent_given""]",29,F,"[""none""]","[""spanish""]",fe25aa7f628b34e1d780103d,66a626ef09d4e21e1a8894ec,67371d45c30edb7574758dcf,2024-11-15_11h09.09.566,Tarea de género gramatical,2024.2.2,Win32,50,,,,,,,,,,,,,,,,,,,,,,,,,,,,,,,,,,,,,,,,,,,,,,,,,,,,,,,,,,,,,,,,,,,,
,,,,,,fe25aa7f628b34e1d780103d,66a626ef09d4e21e1a8894ec,67371d45c30edb7574758dcf,2024-11-15_11h09.09.566,Tarea de género gramatical,2024.2.2,Win32,50,51.6341,51.6348,,,,,,,,,,,,,,,,,,,,,,,,,,,,,,,,,,,,,,,,,,,,,,,,,,,,,,,,,,,,,,,,,,
,,,,,,fe25aa7f628b34e1d780103d,66a626ef09d4e21e1a8894ec,67371d45c30edb7574758dcf,2024-11-15_11h09.09.566,Tarea de género gramatical,2024.2.2,Win32,50,,,51.7051,61.593,space,9.842099998,,0.017777778,-0.126666667,0,0,0,0,0,0,0,1,1,instructions,"INSTRUCCIONES
Va a realizar una prueba de selección gramatical. Desde el comienzo de la prueba mire siempre al centro de la pantalla. Al cabo de un momento, aparecerán palabras. La tarea consiste en determinar si la palabra del centro (siempre será un sustantivo), pertenece al género masculino o femenino.

Pulse la tecla ESPACIO o toque el botón de abajo para continuar.",0,keyboardresponseFM.png,,,,,,,,,,,,,,,,,,,,,,,,,,,,,,,,,,,,,,,,,,,,,,
,,,,,,fe25aa7f628b34e1d780103d,66a626ef09d4e21e1a8894ec,67371d45c30edb7574758dcf,2024-11-15_11h09.09.566,Tarea de género gramatical,2024.2.2,Win32,50,,,61.6032,74.7893,space,13.0881,,0.017777778,-0.126666667,0,0,0,0,1,1,1,1,2,instructions,"Si su dispositivo tiene teclado, pulse la tecla ""A"" para las palabras en femenino (por ejemplo: ""mano"") y la tecla ""L"" para las palabras en masculino(por ejemplo: ""arroz"").
Pulse la tecla ESPACIO o toque el botón de abajo para continuar.",1,keyboardresponseFM.png,,,,,,,,,,,,,,,,,,,,,,,,,,,,,,,,,,,,,,,,,,,,,,
,,,,,,fe25aa7f628b34e1d780103d,66a626ef09d4e21e1a8894ec,67371d45c30edb7574758dcf,2024-11-15_11h09.09.566,Tarea de género gramatical,2024.2.2,Win32,50,,,74.7971,77.1059,space,2.223799999,,0.017777778,-0.126666667,0,0,0,0,2,2,2,1,3,instructions,"Si utiliza un dispositivo sólo táctil, colóquelo en horizontal y utilice los botones de la pantalla. No utilice el ratón.
Pulse la tecla ESPACIO o toque el botón de abajo para continuar.",2,touchresponseFM.png,,,,,,,,,,,,,,,,,,,,,,,,,,,,,,,,,,,,,,,,,,,,,,
,,,,,,fe25aa7f628b34e1d780103d,66a626ef09d4e21e1a8894ec,67371d45c30edb7574758dcf,2024-11-15_11h09.09.566,Tarea de género gramatical,2024.2.2,Win32,50,,,77.1177,84.5917,space,7.4411,,0.017777778,-0.126666667,0,0,0,0,3,3,3,1,4,instructions,"Es muy importante que responda con la mayor rapidez y precisión posibles, ya que cada cadena de letras sólo estará en pantalla durante un instante. Si no responde en ese tiempo, aparecerá el mensaje ""Muy lento"" y el experimento pasará a la siguiente palabra. Los primeros 15 intentos serán de práctica y habrá dos descansos durante la prueba.
Pulse la tecla ESPACIO o toque el botón de abajo para iniciar la parte de práctica.",0,keyboardresponseFM.png,,,,,,,,,,,,,,,,,,,,,,,,,,,,,,,,,,,,,,,,,,,,,,
,,,,,,fe25aa7f628b34e1d780103d,66a626ef09d4e21e1a8894ec,67371d45c30edb7574758dcf,2024-11-15_11h09.09.566,Tarea de género gramatical,2024.2.2,Win32,50,,,,,,,,,,,,,,,,,,,,,,,84.6422,86.4099,l,1,1.0804,,[],[],[],[],[],[],[],1.0804,1,86.4111,86.9074,0,0,0,13,1,2014,MAS,CON,150,siglo,,l,,,,,,,,,,,,,,,,,
,,,,,,fe25aa7f628b34e1d780103d,66a626ef09d4e21e1a8894ec,67371d45c30edb7574758dcf,2024-11-15_11h09.09.566,Tarea de género gramatical,2024.2.2,Win32,50,,,,,,,,,,,,,,,,,,,,,,,86.9146,88.2854,a,0,0.701,,[],[],[],[],[],[],[],0.701,0,88.2889,88.7834,0,1,1,14,1,2015,MAS,DIS,150,robot,la,l,,,,,,,,,,,,,,,,,
,,,,,,fe25aa7f628b34e1d780103d,66a626ef09d4e21e1a8894ec,67371d45c30edb7574758dcf,2024-11-15_11h09.09.566,Tarea de género gramatical,2024.2.2,Win32,50,,,,,,,,,,,,,,,,,,,,,,,88.7884,90.1821,a,1,0.7209,,[],[],[],[],[],[],[],0.7209,1,90.1849,90.6805,0,2,2,1,1,2002,FEM,CON,150,pala,,a,,,,,,,,,,,,,,,,,
,,,,,,fe25aa7f628b34e1d780103d,66a626ef09d4e21e1a8894ec,67371d45c30edb7574758dcf,2024-11-15_11h09.09.566,Tarea de género gramatical,2024.2.2,Win32,50,,,,,,,,,,,,,,,,,,,,,,,90.6859,93.3356,,0,,,[],[],[],[],[],[],[],0.7209,-1,93.3392,93.8352,0,3,3,8,1,2009,MAS,DIS,150,puerto,la,l,,,,,,,,,,,,,,,,,
,,,,,,fe25aa7f628b34e1d780103d,66a626ef09d4e21e1a8894ec,67371d45c30edb7574758dcf,2024-11-15_11h09.09.566,Tarea de género gramatical,2024.2.2,Win32,50,,,,,,,,,,,,,,,,,,,,,,,93.8392,95.1131,a,1,0.601,,[],[],[],[],[],[],[],0.601,1,95.1151,95.6124,0,4,4,7,1,2008,FEM,CON,150,siesta,,a,,,,,,,,,,,,,,,,,
,,,,,,fe25aa7f628b34e1d780103d,66a626ef09d4e21e1a8894ec,67371d45c30edb7574758dcf,2024-11-15_11h09.09.566,Tarea de género gramatical,2024.2.2,Win32,50,,,,,,,,,,,,,,,,,,,,,,,95.6186,96.8509,l,1,0.5611,,[],[],[],[],[],[],[],0.5611,1,96.8514,97.3493,0,5,5,9,1,2010,MAS,AGR,150,vecino,el,l,,,,,,,,,,,,,,,,,
,,,,,,fe25aa7f628b34e1d780103d,66a626ef09d4e21e1a8894ec,67371d45c30edb7574758dcf,2024-11-15_11h09.09.566,Tarea de género gramatical,2024.2.2,Win32,50,,,,,,,,,,,,,,,,,,,,,,,97.3541,98.4883,a,0,0.4616,,[],[],[],[],[],[],[],0.4616,0,98.4911,98.9865,0,6,6,11,1,2012,MAS,DIS,150,clima,la,l,,,,,,,,,,,,,,,,,
,,,,,,fe25aa7f628b34e1d780103d,66a626ef09d4e21e1a8894ec,67371d45c30edb7574758dcf,2024-11-15_11h09.09.566,Tarea de género gramatical,2024.2.2,Win32,50,,,,,,,,,,,,,,,,,,,,,,,98.9913,100.3647,a,1,0.7004,,[],[],[],[],[],[],[],0.7004,1,100.3679,100.8635,0,7,7,0,1,2001,FEM,AGR,150,nuca,la,a,,,,,,,,,,,,,,,,,
,,,,,,fe25aa7f628b34e1d780103d,66a626ef09d4e21e1a8894ec,67371d45c30edb7574758dcf,2024-11-15_11h09.09.566,Tarea de género gramatical,2024.2.2,Win32,50,,,,,,,,,,,,,,,,,,,,,,,100.8672,102.1404,a,1,0.595599998,,[],[],[],[],[],[],[],0.595599998,1,102.1405,102.6406,0,8,8,3,1,2004,FEM,AGR,150,venta,la,a,,,,,,,,,,,,,,,,,
,,,,,,fe25aa7f628b34e1d780103d,66a626ef09d4e21e1a8894ec,67371d45c30edb7574758dcf,2024-11-15_11h09.09.566,Tarea de género gramatical,2024.2.2,Win32,50,,,,,,,,,,,,,,,,,,,,,,,102.6445,103.8995,l,1,0.5809,,[],[],[],[],[],[],[],0.5809,1,103.9,104.3977,0,9,9,12,1,2013,MAS,AGR,150,acero,el,l,,,,,,,,,,,,,,,,,
,,,,,,fe25aa7f628b34e1d780103d,66a626ef09d4e21e1a8894ec,67371d45c30edb7574758dcf,2024-11-15_11h09.09.566,Tarea de género gramatical,2024.2.2,Win32,50,,,,,,,,,,,,,,,,,,,,,,,104.4018,105.5363,l,0,0.4609,,[],[],[],[],[],[],[],0.4609,0,105.5402,106.035,0,10,10,5,1,2006,FEM,DIS,150,serie,el,a,,,,,,,,,,,,,,,,,
,,,,,,fe25aa7f628b34e1d780103d,66a626ef09d4e21e1a8894ec,67371d45c30edb7574758dcf,2024-11-15_11h09.09.566,Tarea de género gramatical,2024.2.2,Win32,50,,,,,,,,,,,,,,,,,,,,,,,106.0397,107.314,a,1,0.600599998,,[],[],[],[],[],[],[],0.600599998,1,107.3167,107.8119,0,11,11,6,1,2007,FEM,AGR,150,navaja,la,a,,,,,,,,,,,,,,,,,
,,,,,,fe25aa7f628b34e1d780103d,66a626ef09d4e21e1a8894ec,67371d45c30edb7574758dcf,2024-11-15_11h09.09.566,Tarea de género gramatical,2024.2.2,Win32,50,,,,,,,,,,,,,,,,,,,,,,,107.8155,108.9502,a,1,0.460699999,,[],[],[],[],[],[],[],0.460699999,1,108.9506,109.4493,0,12,12,4,1,2005,FEM,CON,150,placa,,a,,,,,,,,,,,,,,,,,
,,,,,,fe25aa7f628b34e1d780103d,66a626ef09d4e21e1a8894ec,67371d45c30edb7574758dcf,2024-11-15_11h09.09.566,Tarea de género gramatical,2024.2.2,Win32,50,,,,,,,,,,,,,,,,,,,,,,,109.4541,110.8474,l,0,0.721,,[],[],[],[],[],[],[],0.721,0,110.8501,111.3465,0,13,13,2,1,2003,FEM,DIS,150,daga,el,a,,,,,,,,,,,,,,,,,
,,,,,,fe25aa7f628b34e1d780103d,66a626ef09d4e21e1a8894ec,67371d45c30edb7574758dcf,2024-11-15_11h09.09.566,Tarea de género gramatical,2024.2.2,Win32,50,,,,,,,,,,,,,,,,,,,,,,,111.3504,112.7035,l,1,0.6776,,[],[],[],[],[],[],[],0.6776,1,112.7054,113.2033,0,14,14,10,1,2011,MAS,CON,150,canal,,l,,,,,,,,,,,,,,,,,
,,,,,,fe25aa7f628b34e1d780103d,66a626ef09d4e21e1a8894ec,67371d45c30edb7574758dcf,2024-11-15_11h09.09.566,Tarea de género gramatical,2024.2.2,Win32,50,,,117.2285,119.1752,space,1.917,,0.017777778,-0.126666667,0,0,0,,,,,,,,,,,119.2668,120.5919,l,1,0.641200001,,[],[],[],[],[],[],[],0.641200001,1,120.5922,121.0898,,,,,,1326,MAS,CON,150,pánico,,l,121.0906,121.1011,0.017777778,-0.126666667,0,0,0,,0,0,0,425,1,,,,
,,,,,,fe25aa7f628b34e1d780103d,66a626ef09d4e21e1a8894ec,67371d45c30edb7574758dcf,2024-11-15_11h09.09.566,Tarea de género gramatical,2024.2.2,Win32,50,,,,,,,,,,,,,,,,,,,,,,,121.1047,122.2283,l,0,0.4406,,[],[],[],[],[],[],[],0.4406,0,122.2321,122.7275,,,,,,969,FEM,CON,150,rata,,a,122.7277,122.7286,0.017777778,-0.126666667,0,0,0,,0,1,1,68,1,,,,
,,,,,,fe25aa7f628b34e1d780103d,66a626ef09d4e21e1a8894ec,67371d45c30edb7574758dcf,2024-11-15_11h09.09.566,Tarea de género gramatical,2024.2.2,Win32,50,,,,,,,,,,,,,,,,,,,,,,,122.7331,124.0455,a,1,0.635,,[],[],[],[],[],[],[],0.635,1,124.0486,124.5447,,,,,,1261,FEM,DIS,150,oferta,el,a,124.5497,124.553,0.017777778,-0.126666667,0,0,0,,0,2,2,360,1,,,,
,,,,,,fe25aa7f628b34e1d780103d,66a626ef09d4e21e1a8894ec,67371d45c30edb7574758dcf,2024-11-15_11h09.09.566,Tarea de género gramatical,2024.2.2,Win32,50,,,,,,,,,,,,,,,,,,,,,,,124.5555,125.6638,a,1,0.421700001,,[],[],[],[],[],[],[],0.421700001,1,125.6642,126.1618,,,,,,1082,FEM,AGR,150,prisa,la,a,126.1621,126.1628,0.017777778,-0.126666667,0,0,0,,0,3,3,181,1,,,,
,,,,,,fe25aa7f628b34e1d780103d,66a626ef09d4e21e1a8894ec,67371d45c30edb7574758dcf,2024-11-15_11h09.09.566,Tarea de género gramatical,2024.2.2,Win32,50,,,,,,,,,,,,,,,,,,,,,,,126.1674,127.4203,l,1,0.581200001,,[],[],[],[],[],[],[],0.581200001,1,127.4207,127.919,,,,,,1180,MAS,DIS,150,salón,la,l,127.9193,127.92,0.017777778,-0.126666667,0,0,0,,0,4,4,279,1,,,,
,,,,,,fe25aa7f628b34e1d780103d,66a626ef09d4e21e1a8894ec,67371d45c30edb7574758dcf,2024-11-15_11h09.09.566,Tarea de género gramatical,2024.2.2,Win32,50,,,,,,,,,,,,,,,,,,,,,,,127.9243,129.2783,l,1,0.6879,,[],[],[],[],[],[],[],0.6879,1,129.2787,129.7759,,,,,,1060,MAS,DIS,150,señor,la,l,129.7762,129.7771,0.017777778,-0.126666667,0,0,0,,0,5,5,159,1,,,,
,,,,,,fe25aa7f628b34e1d780103d,66a626ef09d4e21e1a8894ec,67371d45c30edb7574758dcf,2024-11-15_11h09.09.566,Tarea de género gramatical,2024.2.2,Win32,50,,,,,,,,,,,,,,,,,,,,,,,129.7802,130.9553,l,1,0.501700001,,[],[],[],[],[],[],[],0.501700001,1,130.9556,131.4534,,,,,,1104,MAS,CON,150,papel,,l,131.4595,131.4623,0.017777778,-0.126666667,0,0,0,,0,6,6,203,1,,,,
,,,,,,fe25aa7f628b34e1d780103d,66a626ef09d4e21e1a8894ec,67371d45c30edb7574758dcf,2024-11-15_11h09.09.566,Tarea de género gramatical,2024.2.2,Win32,50,,,,,,,,,,,,,,,,,,,,,,,131.4647,132.6325,l,1,0.4835,,[],[],[],[],[],[],[],0.4835,1,132.6329,133.1304,,,,,,1331,MAS,AGR,150,veneno,el,l,133.1306,133.1313,0.017777778,-0.126666667,0,0,0,,0,7,7,430,1,,,,
,,,,,,fe25aa7f628b34e1d780103d,66a626ef09d4e21e1a8894ec,67371d45c30edb7574758dcf,2024-11-15_11h09.09.566,Tarea de género gramatical,2024.2.2,Win32,50,,,,,,,,,,,,,,,,,,,,,,,133.1347,134.4282,l,1,0.6205,,[],[],[],[],[],[],[],0.6205,1,134.4287,134.9274,,,,,,1168,MAS,DIS,150,truco,la,l,134.9276,134.9283,0.017777778,-0.126666667,0,0,0,,0,8,8,267,1,,,,
,,,,,,fe25aa7f628b34e1d780103d,66a626ef09d4e21e1a8894ec,67371d45c30edb7574758dcf,2024-11-15_11h09.09.566,Tarea de género gramatical,2024.2.2,Win32,50,,,,,,,,,,,,,,,,,,,,,,,134.9327,136.0264,l,1,0.4214,,[],[],[],[],[],[],[],0.4214,1,136.0268,136.525,,,,,,1156,MAS,DIS,150,techo,la,l,136.5253,136.526,0.017777778,-0.126666667,0,0,0,,0,9,9,255,1,,,,
,,,,,,fe25aa7f628b34e1d780103d,66a626ef09d4e21e1a8894ec,67371d45c30edb7574758dcf,2024-11-15_11h09.09.566,Tarea de género gramatical,2024.2.2,Win32,50,,,,,,,,,,,,,,,,,,,,,,,136.5293,137.6246,l,1,0.4226,,[],[],[],[],[],[],[],0.4226,1,137.625,138.1223,,,,,,982,MAS,DIS,150,tubo,la,l,138.1225,138.1234,0.017777778,-0.126666667,0,0,0,,0,10,10,81,1,,,,
,,,,,,fe25aa7f628b34e1d780103d,66a626ef09d4e21e1a8894ec,67371d45c30edb7574758dcf,2024-11-15_11h09.09.566,Tarea de género gramatical,2024.2.2,Win32,50,,,,,,,,,,,,,,,,,,,,,,,138.1269,139.1812,a,1,0.3814,,[],[],[],[],[],[],[],0.3814,1,139.1815,139.6796,,,,,,1166,FEM,AGR,150,jaula,la,a,139.685,139.6874,0.017777778,-0.126666667,0,0,0,,0,11,11,265,1,,,,
,,,,,,fe25aa7f628b34e1d780103d,66a626ef09d4e21e1a8894ec,67371d45c30edb7574758dcf,2024-11-15_11h09.09.566,Tarea de género gramatical,2024.2.2,Win32,50,,,,,,,,,,,,,,,,,,,,,,,139.6896,140.7981,l,1,0.4214,,[],[],[],[],[],[],[],0.4214,1,140.7985,141.297,,,,,,924,MAS,CON,150,voto,,l,141.2971,141.2978,0.017777778,-0.126666667,0,0,0,,0,12,12,23,1,,,,
,,,,,,fe25aa7f628b34e1d780103d,66a626ef09d4e21e1a8894ec,67371d45c30edb7574758dcf,2024-11-15_11h09.09.566,Tarea de género gramatical,2024.2.2,Win32,50,,,,,,,,,,,,,,,,,,,,,,,141.3011,142.3556,l,1,0.380700001,,[],[],[],[],[],[],[],0.380700001,1,142.3558,142.8544,,,,,,918,MAS,CON,150,tren,,l,142.8545,142.8551,0.017777778,-0.126666667,0,0,0,,0,13,13,17,1,,,,
,,,,,,fe25aa7f628b34e1d780103d,66a626ef09d4e21e1a8894ec,67371d45c30edb7574758dcf,2024-11-15_11h09.09.566,Tarea de género gramatical,2024.2.2,Win32,50,,,,,,,,,,,,,,,,,,,,,,,142.8585,143.9334,a,1,0.4015,,[],[],[],[],[],[],[],0.4015,1,143.9339,144.4322,,,,,,1292,FEM,AGR,150,maleta,la,a,144.4324,144.4329,0.017777778,-0.126666667,0,0,0,,0,14,14,391,1,,,,
,,,,,,fe25aa7f628b34e1d780103d,66a626ef09d4e21e1a8894ec,67371d45c30edb7574758dcf,2024-11-15_11h09.09.566,Tarea de género gramatical,2024.2.2,Win32,50,,,,,,,,,,,,,,,,,,,,,,,144.4362,145.5897,a,1,0.480199999,,[],[],[],[],[],[],[],0.480199999,1,145.5901,146.089,,,,,,1023,FEM,CON,150,tela,,a,146.0949,146.0974,0.017777778,-0.126666667,0,0,0,,0,15,15,122,1,,,,
,,,,,,fe25aa7f628b34e1d780103d,66a626ef09d4e21e1a8894ec,67371d45c30edb7574758dcf,2024-11-15_11h09.09.566,Tarea de género gramatical,2024.2.2,Win32,50,,,,,,,,,,,,,,,,,,,,,,,146.1001,147.1874,a,1,0.400699999,,[],[],[],[],[],[],[],0.400699999,1,147.188,147.6864,,,,,,914,FEM,AGR,150,cara,la,a,147.6865,147.6871,0.017777778,-0.126666667,0,0,0,,0,16,16,13,1,,,,
,,,,,,fe25aa7f628b34e1d780103d,66a626ef09d4e21e1a8894ec,67371d45c30edb7574758dcf,2024-11-15_11h09.09.566,Tarea de género gramatical,2024.2.2,Win32,50,,,,,,,,,,,,,,,,,,,,,,,147.6906,148.9052,l,0,0.5415,,[],[],[],[],[],[],[],0.5415,0,148.9079,149.4034,,,,,,1243,FEM,DIS,150,trampa,el,a,149.4037,149.4043,0.017777778,-0.126666667,0,0,0,,0,17,17,342,1,,,,
,,,,,,fe25aa7f628b34e1d780103d,66a626ef09d4e21e1a8894ec,67371d45c30edb7574758dcf,2024-11-15_11h09.09.566,Tarea de género gramatical,2024.2.2,Win32,50,,,,,,,,,,,,,,,,,,,,,,,149.4077,150.7217,a,1,0.6405,,[],[],[],[],[],[],[],0.6405,1,150.7248,151.2208,,,,,,1207,FEM,DIS,150,suerte,el,a,151.2211,151.2217,0.017777778,-0.126666667,0,0,0,,0,18,18,306,1,,,,
,,,,,,fe25aa7f628b34e1d780103d,66a626ef09d4e21e1a8894ec,67371d45c30edb7574758dcf,2024-11-15_11h09.09.566,Tarea de género gramatical,2024.2.2,Win32,50,,,,,,,,,,,,,,,,,,,,,,,151.2247,152.3382,l,1,0.4379,,[],[],[],[],[],[],[],0.4379,1,152.3384,152.8378,,,,,,1308,MAS,CON,150,cheque,,l,152.8381,152.8385,0.017777778,-0.126666667,0,0,0,,0,19,19,407,1,,,,
,,,,,,fe25aa7f628b34e1d780103d,66a626ef09d4e21e1a8894ec,67371d45c30edb7574758dcf,2024-11-15_11h09.09.566,Tarea de género gramatical,2024.2.2,Win32,50,,,,,,,,,,,,,,,,,,,,,,,152.8422,153.8562,a,0,0.3364,,[],[],[],[],[],[],[],0.3364,0,153.8593,154.3553,,,,,,1102,MAS,DIS,150,honor,la,l,154.3607,154.363,0.017777778,-0.126666667,0,0,0,,0,20,20,201,1,,,,
,,,,,,fe25aa7f628b34e1d780103d,66a626ef09d4e21e1a8894ec,67371d45c30edb7574758dcf,2024-11-15_11h09.09.566,Tarea de género gramatical,2024.2.2,Win32,50,,,,,,,,,,,,,,,,,,,,,,,154.3665,155.6939,a,1,0.6406,,[],[],[],[],[],[],[],0.6406,1,155.6969,156.1923,,,,,,1106,FEM,AGR,150,época,la,a,156.1924,156.1929,0.017777778,-0.126666667,0,0,0,,0,21,21,205,1,,,,
,,,,,,fe25aa7f628b34e1d780103d,66a626ef09d4e21e1a8894ec,67371d45c30edb7574758dcf,2024-11-15_11h09.09.566,Tarea de género gramatical,2024.2.2,Win32,50,,,,,,,,,,,,,,,,,,,,,,,156.1967,157.4503,l,1,0.581299999,,[],[],[],[],[],[],[],0.581299999,1,157.4507,157.9493,,,,,,1042,MAS,DIS,150,lodo,la,l,157.9496,157.9502,0.017777778,-0.126666667,0,0,0,,0,22,22,141,1,,,,
,,,,,,fe25aa7f628b34e1d780103d,66a626ef09d4e21e1a8894ec,67371d45c30edb7574758dcf,2024-11-15_11h09.09.566,Tarea de género gramatical,2024.2.2,Win32,50,,,,,,,,,,,,,,,,,,,,,,,157.9536,159.0878,l,1,0.460699999,,[],[],[],[],[],[],[],0.460699999,1,159.0881,159.5867,,,,,,1337,MAS,AGR,150,hombro,el,l,159.5869,159.5875,0.017777778,-0.126666667,0,0,0,,0,23,23,436,1,,,,
,,,,,,fe25aa7f628b34e1d780103d,66a626ef09d4e21e1a8894ec,67371d45c30edb7574758dcf,2024-11-15_11h09.09.566,Tarea de género gramatical,2024.2.2,Win32,50,,,,,,,,,,,,,,,,,,,,,,,159.5908,160.706,a,1,0.441700001,,[],[],[],[],[],[],[],0.441700001,1,160.7062,161.2041,,,,,,945,FEM,CON,150,isla,,a,161.2095,161.2119,0.017777778,-0.126666667,0,0,0,,0,24,24,44,1,,,,
,,,,,,fe25aa7f628b34e1d780103d,66a626ef09d4e21e1a8894ec,67371d45c30edb7574758dcf,2024-11-15_11h09.09.566,Tarea de género gramatical,2024.2.2,Win32,50,,,,,,,,,,,,,,,,,,,,,,,161.2142,162.3629,a,1,0.481,,[],[],[],[],[],[],[],0.481,1,162.3632,162.8615,,,,,,1309,FEM,DIS,150,moneda,el,a,162.8617,162.8622,0.017777778,-0.126666667,0,0,0,,0,25,25,408,1,,,,
,,,,,,fe25aa7f628b34e1d780103d,66a626ef09d4e21e1a8894ec,67371d45c30edb7574758dcf,2024-11-15_11h09.09.566,Tarea de género gramatical,2024.2.2,Win32,50,,,,,,,,,,,,,,,,,,,,,,,162.8657,163.9605,l,1,0.4216,,[],[],[],[],[],[],[],0.4216,1,163.9609,164.4587,,,,,,1240,MAS,DIS,150,pasado,la,l,164.459,164.4595,0.017777778,-0.126666667,0,0,0,,0,26,26,339,1,,,,
,,,,,,fe25aa7f628b34e1d780103d,66a626ef09d4e21e1a8894ec,67371d45c30edb7574758dcf,2024-11-15_11h09.09.566,Tarea de género gramatical,2024.2.2,Win32,50,,,,,,,,,,,,,,,,,,,,,,,164.4631,165.5975,a,1,0.462300001,,[],[],[],[],[],[],[],0.462300001,1,165.5977,166.0965,,,,,,1009,FEM,DIS,150,gota,el,a,166.0968,166.0975,0.017777778,-0.126666667,0,0,0,,0,27,27,108,1,,,,
,,,,,,fe25aa7f628b34e1d780103d,66a626ef09d4e21e1a8894ec,67371d45c30edb7574758dcf,2024-11-15_11h09.09.566,Tarea de género gramatical,2024.2.2,Win32,50,,,,,,,,,,,,,,,,,,,,,,,166.102,167.1538,a,1,0.378,,[],[],[],[],[],[],[],0.378,1,167.154,167.6534,,,,,,1083,FEM,CON,150,llave,,a,167.6535,167.6542,0.017777778,-0.126666667,0,0,0,,0,28,28,182,1,,,,
,,,,,,fe25aa7f628b34e1d780103d,66a626ef09d4e21e1a8894ec,67371d45c30edb7574758dcf,2024-11-15_11h09.09.566,Tarea de género gramatical,2024.2.2,Win32,50,,,,,,,,,,,,,,,,,,,,,,,167.658,168.832,a,1,0.5065,,[],[],[],[],[],[],[],0.5065,1,168.8324,169.3308,,,,,,1045,FEM,DIS,150,bota,el,a,169.336,169.3387,0.017777778,-0.126666667,0,0,0,,0,29,29,144,1,,,,
,,,,,,fe25aa7f628b34e1d780103d,66a626ef09d4e21e1a8894ec,67371d45c30edb7574758dcf,2024-11-15_11h09.09.566,Tarea de género gramatical,2024.2.2,Win32,50,,,,,,,,,,,,,,,,,,,,,,,169.3412,170.4694,l,1,0.441,,[],[],[],[],[],[],[],0.441,1,170.4697,170.9685,,,,,,1188,MAS,CON,150,grado,,l,170.9688,170.9693,0.017777778,-0.126666667,0,0,0,,0,30,30,287,1,,,,
,,,,,,fe25aa7f628b34e1d780103d,66a626ef09d4e21e1a8894ec,67371d45c30edb7574758dcf,2024-11-15_11h09.09.566,Tarea de género gramatical,2024.2.2,Win32,50,,,,,,,,,,,,,,,,,,,,,,,170.9726,172.1065,a,1,0.460699999,,[],[],[],[],[],[],[],0.460699999,1,172.107,172.6053,,,,,,1089,FEM,CON,150,pista,,a,172.6055,172.606,0.017777778,-0.126666667,0,0,0,,0,31,31,188,1,,,,
,,,,,,fe25aa7f628b34e1d780103d,66a626ef09d4e21e1a8894ec,67371d45c30edb7574758dcf,2024-11-15_11h09.09.566,Tarea de género gramatical,2024.2.2,Win32,50,,,,,,,,,,,,,,,,,,,,,,,172.6095,173.6649,a,1,0.382,,[],[],[],[],[],[],[],0.382,1,173.6652,174.1629,,,,,,1016,FEM,AGR,150,nube,la,a,174.1631,174.1636,0.017777778,-0.126666667,0,0,0,,0,32,32,115,1,,,,
,,,,,,fe25aa7f628b34e1d780103d,66a626ef09d4e21e1a8894ec,67371d45c30edb7574758dcf,2024-11-15_11h09.09.566,Tarea de género gramatical,2024.2.2,Win32,50,,,,,,,,,,,,,,,,,,,,,,,174.1671,175.2212,l,1,0.380699999,,[],[],[],[],[],[],[],0.380699999,1,175.2216,175.7202,,,,,,1307,MAS,AGR,150,jurado,el,l,175.7258,175.7284,0.017777778,-0.126666667,0,0,0,,0,33,33,406,1,,,,
,,,,,,fe25aa7f628b34e1d780103d,66a626ef09d4e21e1a8894ec,67371d45c30edb7574758dcf,2024-11-15_11h09.09.566,Tarea de género gramatical,2024.2.2,Win32,50,,,,,,,,,,,,,,,,,,,,,,,175.7311,176.9794,l,1,0.561300001,,[],[],[],[],[],[],[],0.561300001,1,176.9798,177.4773,,,,,,1282,MAS,DIS,150,teatro,la,l,177.4775,177.4779,0.017777778,-0.126666667,0,0,0,,0,34,34,381,1,,,,
,,,,,,fe25aa7f628b34e1d780103d,66a626ef09d4e21e1a8894ec,67371d45c30edb7574758dcf,2024-11-15_11h09.09.566,Tarea de género gramatical,2024.2.2,Win32,50,,,,,,,,,,,,,,,,,,,,,,,177.4812,178.7357,l,1,0.581299999,,[],[],[],[],[],[],[],0.581299999,1,178.736,179.2344,,,,,,1194,MAS,CON,150,cable,,l,179.2346,179.2351,0.017777778,-0.126666667,0,0,0,,0,35,35,293,1,,,,
,,,,,,fe25aa7f628b34e1d780103d,66a626ef09d4e21e1a8894ec,67371d45c30edb7574758dcf,2024-11-15_11h09.09.566,Tarea de género gramatical,2024.2.2,Win32,50,,,,,,,,,,,,,,,,,,,,,,,179.2395,180.3332,a,1,0.421799999,,[],[],[],[],[],[],[],0.421799999,1,180.3336,180.8319,,,,,,1267,FEM,DIS,150,teoría,el,a,180.8321,180.8326,0.017777778,-0.126666667,0,0,0,,0,36,36,366,1,,,,
,,,,,,fe25aa7f628b34e1d780103d,66a626ef09d4e21e1a8894ec,67371d45c30edb7574758dcf,2024-11-15_11h09.09.566,Tarea de género gramatical,2024.2.2,Win32,50,,,,,,,,,,,,,,,,,,,,,,,180.836,181.991,a,1,0.4814,,[],[],[],[],[],[],[],0.4814,1,181.9914,182.489,,,,,,1057,FEM,DIS,150,madre,el,a,182.4891,182.4894,0.017777778,-0.126666667,0,0,0,,0,37,37,156,1,,,,
,,,,,,fe25aa7f628b34e1d780103d,66a626ef09d4e21e1a8894ec,67371d45c30edb7574758dcf,2024-11-15_11h09.09.566,Tarea de género gramatical,2024.2.2,Win32,50,,,,,,,,,,,,,,,,,,,,,,,182.4912,183.6866,l,1,0.5196,,[],[],[],[],[],[],[],0.5196,1,183.6868,184.1862,,,,,,1150,MAS,DIS,150,cerdo,la,l,184.192,184.1944,0.017777778,-0.126666667,0,0,0,,0,38,38,249,1,,,,
,,,,,,fe25aa7f628b34e1d780103d,66a626ef09d4e21e1a8894ec,67371d45c30edb7574758dcf,2024-11-15_11h09.09.566,Tarea de género gramatical,2024.2.2,Win32,50,,,,,,,,,,,,,,,,,,,,,,,184.197,185.2255,a,1,0.3416,,[],[],[],[],[],[],[],0.3416,1,185.2258,185.7238,,,,,,1088,FEM,AGR,150,bomba,la,a,185.724,185.7245,0.017777778,-0.126666667,0,0,0,,0,39,39,187,1,,,,
,,,,,,fe25aa7f628b34e1d780103d,66a626ef09d4e21e1a8894ec,67371d45c30edb7574758dcf,2024-11-15_11h09.09.566,Tarea de género gramatical,2024.2.2,Win32,50,,,,,,,,,,,,,,,,,,,,,,,185.7282,186.9219,l,1,0.526,,[],[],[],[],[],[],[],0.526,1,186.9222,187.421,,,,,,976,MAS,DIS,150,lujo,la,l,187.4212,187.4219,0.017777778,-0.126666667,0,0,0,,0,40,40,75,1,,,,
,,,,,,fe25aa7f628b34e1d780103d,66a626ef09d4e21e1a8894ec,67371d45c30edb7574758dcf,2024-11-15_11h09.09.566,Tarea de género gramatical,2024.2.2,Win32,50,,,,,,,,,,,,,,,,,,,,,,,187.4254,188.5192,l,1,0.4205,,[],[],[],[],[],[],[],0.4205,1,188.5195,189.0182,,,,,,1032,MAS,CON,150,velo,,l,189.0185,189.0189,0.017777778,-0.126666667,0,0,0,,0,41,41,131,1,,,,
,,,,,,fe25aa7f628b34e1d780103d,66a626ef09d4e21e1a8894ec,67371d45c30edb7574758dcf,2024-11-15_11h09.09.566,Tarea de género gramatical,2024.2.2,Win32,50,,,,,,,,,,,,,,,,,,,,,,,189.0226,190.036,a,1,0.3401,,[],[],[],[],[],[],[],0.3401,1,190.0362,190.5358,,,,,,1100,FEM,AGR,150,silla,la,a,190.5407,190.5432,0.017777778,-0.126666667,0,0,0,,0,42,42,199,1,,,,
,,,,,,fe25aa7f628b34e1d780103d,66a626ef09d4e21e1a8894ec,67371d45c30edb7574758dcf,2024-11-15_11h09.09.566,Tarea de género gramatical,2024.2.2,Win32,50,,,,,,,,,,,,,,,,,,,,,,,190.5458,191.9336,a,1,0.7204,,[],[],[],[],[],[],[],0.7204,1,191.934,192.4328,,,,,,1015,FEM,DIS,150,seda,el,a,192.433,192.4336,0.017777778,-0.126666667,0,0,0,,0,43,43,114,1,,,,
,,,,,,fe25aa7f628b34e1d780103d,66a626ef09d4e21e1a8894ec,67371d45c30edb7574758dcf,2024-11-15_11h09.09.566,Tarea de género gramatical,2024.2.2,Win32,50,,,,,,,,,,,,,,,,,,,,,,,192.4369,193.4915,l,1,0.3814,,[],[],[],[],[],[],[],0.3814,1,193.4919,193.9902,,,,,,1199,MAS,AGR,150,rumbo,el,l,193.9904,193.9913,0.017777778,-0.126666667,0,0,0,,0,44,44,298,1,,,,
,,,,,,fe25aa7f628b34e1d780103d,66a626ef09d4e21e1a8894ec,67371d45c30edb7574758dcf,2024-11-15_11h09.09.566,Tarea de género gramatical,2024.2.2,Win32,50,,,,,,,,,,,,,,,,,,,,,,,193.9962,195.0685,a,1,0.400800001,,[],[],[],[],[],[],[],0.400800001,1,195.0689,195.5676,,,,,,1280,FEM,AGR,150,madera,la,a,195.5678,195.5684,0.017777778,-0.126666667,0,0,0,,0,45,45,379,1,,,,
,,,,,,fe25aa7f628b34e1d780103d,66a626ef09d4e21e1a8894ec,67371d45c30edb7574758dcf,2024-11-15_11h09.09.566,Tarea de género gramatical,2024.2.2,Win32,50,,,,,,,,,,,,,,,,,,,,,,,195.573,196.7863,a,1,0.541,,[],[],[],[],[],[],[],0.541,1,196.7867,197.2847,,,,,,1226,FEM,AGR,150,música,la,a,197.2849,197.2854,0.017777778,-0.126666667,0,0,0,,0,46,46,325,1,,,,
,,,,,,fe25aa7f628b34e1d780103d,66a626ef09d4e21e1a8894ec,67371d45c30edb7574758dcf,2024-11-15_11h09.09.566,Tarea de género gramatical,2024.2.2,Win32,50,,,,,,,,,,,,,,,,,,,,,,,197.2888,198.3425,a,1,0.3785,,[],[],[],[],[],[],[],0.3785,1,198.3427,198.8421,,,,,,1161,FEM,CON,150,cueva,,a,198.8472,198.8495,0.017777778,-0.126666667,0,0,0,,0,47,47,260,1,,,,
,,,,,,fe25aa7f628b34e1d780103d,66a626ef09d4e21e1a8894ec,67371d45c30edb7574758dcf,2024-11-15_11h09.09.566,Tarea de género gramatical,2024.2.2,Win32,50,,,,,,,,,,,,,,,,,,,,,,,198.8532,199.9009,a,1,0.3815,,[],[],[],[],[],[],[],0.3815,1,199.9012,200.3996,,,,,,1033,FEM,DIS,150,joya,el,a,200.3997,200.4003,0.017777778,-0.126666667,0,0,0,,0,48,48,132,1,,,,
,,,,,,fe25aa7f628b34e1d780103d,66a626ef09d4e21e1a8894ec,67371d45c30edb7574758dcf,2024-11-15_11h09.09.566,Tarea de género gramatical,2024.2.2,Win32,50,,,,,,,,,,,,,,,,,,,,,,,200.404,201.458,l,1,0.3811,,[],[],[],[],[],[],[],0.3811,1,201.4584,201.9572,,,,,,916,MAS,DIS,150,baño,la,l,201.9575,201.9581,0.017777778,-0.126666667,0,0,0,,0,49,49,15,1,,,,
,,,,,,fe25aa7f628b34e1d780103d,66a626ef09d4e21e1a8894ec,67371d45c30edb7574758dcf,2024-11-15_11h09.09.566,Tarea de género gramatical,2024.2.2,Win32,50,,,,,,,,,,,,,,,,,,,,,,,201.9616,203.037,a,1,0.4025,,[],[],[],[],[],[],[],0.4025,1,203.0375,203.5343,,,,,,1316,FEM,AGR,150,colina,la,a,203.5346,203.5352,0.017777778,-0.126666667,0,0,0,,0,50,50,415,1,,,,
,,,,,,fe25aa7f628b34e1d780103d,66a626ef09d4e21e1a8894ec,67371d45c30edb7574758dcf,2024-11-15_11h09.09.566,Tarea de género gramatical,2024.2.2,Win32,50,,,,,,,,,,,,,,,,,,,,,,,203.5385,204.6132,l,1,0.401299999,,[],[],[],[],[],[],[],0.401299999,1,204.6135,205.1117,,,,,,923,MAS,AGR,150,rato,el,l,205.1177,205.12,0.017777778,-0.126666667,0,0,0,,0,51,51,22,1,,,,
,,,,,,fe25aa7f628b34e1d780103d,66a626ef09d4e21e1a8894ec,67371d45c30edb7574758dcf,2024-11-15_11h09.09.566,Tarea de género gramatical,2024.2.2,Win32,50,,,,,,,,,,,,,,,,,,,,,,,205.1223,206.1711,l,1,0.3616,,[],[],[],[],[],[],[],0.3616,1,206.1714,206.6693,,,,,,1170,MAS,CON,150,queso,,l,206.6695,206.6701,0.017777778,-0.126666667,0,0,0,,0,52,52,269,1,,,,
,,,,,,fe25aa7f628b34e1d780103d,66a626ef09d4e21e1a8894ec,67371d45c30edb7574758dcf,2024-11-15_11h09.09.566,Tarea de género gramatical,2024.2.2,Win32,50,,,,,,,,,,,,,,,,,,,,,,,206.6745,207.6879,l,1,0.3411,,[],[],[],[],[],[],[],0.3411,1,207.6882,208.1867,,,,,,942,MAS,CON,150,show,,l,208.1869,208.1875,0.017777778,-0.126666667,0,0,0,,0,53,53,41,1,,,,
,,,,,,fe25aa7f628b34e1d780103d,66a626ef09d4e21e1a8894ec,67371d45c30edb7574758dcf,2024-11-15_11h09.09.566,Tarea de género gramatical,2024.2.2,Win32,50,,,,,,,,,,,,,,,,,,,,,,,208.1911,209.2248,a,1,0.360900002,,[],[],[],[],[],[],[],0.360900002,1,209.2252,209.7242,,,,,,913,FEM,DIS,150,hija,el,a,209.7244,209.7251,0.017777778,-0.126666667,0,0,0,,0,54,54,12,1,,,,
,,,,,,fe25aa7f628b34e1d780103d,66a626ef09d4e21e1a8894ec,67371d45c30edb7574758dcf,2024-11-15_11h09.09.566,Tarea de género gramatical,2024.2.2,Win32,50,,,,,,,,,,,,,,,,,,,,,,,209.7286,210.703,l,1,0.301200001,,[],[],[],[],[],[],[],0.301200001,1,210.7034,211.2018,,,,,,947,MAS,AGR,150,olor,el,l,211.202,211.2025,0.017777778,-0.126666667,0,0,0,,0,55,55,46,1,,,,
,,,,,,fe25aa7f628b34e1d780103d,66a626ef09d4e21e1a8894ec,67371d45c30edb7574758dcf,2024-11-15_11h09.09.566,Tarea de género gramatical,2024.2.2,Win32,50,,,,,,,,,,,,,,,,,,,,,,,211.2059,212.3403,a,1,0.4605,,[],[],[],[],[],[],[],0.4605,1,212.3407,212.839,,,,,,1340,FEM,AGR,150,patada,la,a,212.8436,212.8459,0.017777778,-0.126666667,0,0,0,,0,56,56,439,1,,,,
,,,,,,fe25aa7f628b34e1d780103d,66a626ef09d4e21e1a8894ec,67371d45c30edb7574758dcf,2024-11-15_11h09.09.566,Tarea de género gramatical,2024.2.2,Win32,50,,,,,,,,,,,,,,,,,,,,,,,212.8483,213.8579,l,1,0.341699999,,[],[],[],[],[],[],[],0.341699999,1,213.8584,214.3566,,,,,,1278,MAS,CON,150,pastel,,l,214.3568,214.3574,0.017777778,-0.126666667,0,0,0,,0,57,57,377,1,,,,
,,,,,,fe25aa7f628b34e1d780103d,66a626ef09d4e21e1a8894ec,67371d45c30edb7574758dcf,2024-11-15_11h09.09.566,Tarea de género gramatical,2024.2.2,Win32,50,,,,,,,,,,,,,,,,,,,,,,,214.3608,215.4152,a,0,0.3535,,[],[],[],[],[],[],[],0.3535,0,215.4179,215.914,,,,,,929,MAS,AGR,150,frío,el,l,215.9142,215.9148,0.017777778,-0.126666667,0,0,0,,0,58,58,28,1,,,,
,,,,,,fe25aa7f628b34e1d780103d,66a626ef09d4e21e1a8894ec,67371d45c30edb7574758dcf,2024-11-15_11h09.09.566,Tarea de género gramatical,2024.2.2,Win32,50,,,,,,,,,,,,,,,,,,,,,,,215.9183,217.0727,l,1,0.481299999,,[],[],[],[],[],[],[],0.481299999,1,217.0753,217.5715,,,,,,1037,MAS,AGR,150,coco,el,l,217.5718,217.5722,0.017777778,-0.126666667,0,0,0,,0,59,59,136,1,,,,
,,,,,,fe25aa7f628b34e1d780103d,66a626ef09d4e21e1a8894ec,67371d45c30edb7574758dcf,2024-11-15_11h09.09.566,Tarea de género gramatical,2024.2.2,Win32,50,,,,,,,,,,,,,,,,,,,,,,,217.5757,218.75,a,1,0.5009,,[],[],[],[],[],[],[],0.5009,1,218.7502,219.2485,,,,,,902,FEM,AGR,150,vida,la,a,219.2536,219.2559,0.017777778,-0.126666667,0,0,0,,0,60,60,1,1,,,,
,,,,,,fe25aa7f628b34e1d780103d,66a626ef09d4e21e1a8894ec,67371d45c30edb7574758dcf,2024-11-15_11h09.09.566,Tarea de género gramatical,2024.2.2,Win32,50,,,,,,,,,,,,,,,,,,,,,,,219.2584,220.4081,a,1,0.4821,,[],[],[],[],[],[],[],0.4821,1,220.4085,220.9058,,,,,,1113,FEM,CON,150,magia,,a,220.906,220.9066,0.017777778,-0.126666667,0,0,0,,0,61,61,212,1,,,,
,,,,,,fe25aa7f628b34e1d780103d,66a626ef09d4e21e1a8894ec,67371d45c30edb7574758dcf,2024-11-15_11h09.09.566,Tarea de género gramatical,2024.2.2,Win32,50,,,,,,,,,,,,,,,,,,,,,,,220.9113,222.0453,a,1,0.462199999,,[],[],[],[],[],[],[],0.462199999,1,222.0456,222.5432,,,,,,1034,FEM,AGR,150,rama,la,a,222.5434,222.544,0.017777778,-0.126666667,0,0,0,,0,62,62,133,1,,,,
,,,,,,fe25aa7f628b34e1d780103d,66a626ef09d4e21e1a8894ec,67371d45c30edb7574758dcf,2024-11-15_11h09.09.566,Tarea de género gramatical,2024.2.2,Win32,50,,,,,,,,,,,,,,,,,,,,,,,222.5472,223.6819,l,1,0.461200001,,[],[],[],[],[],[],[],0.461200001,1,223.6823,224.1804,,,,,,1056,MAS,CON,150,amigo,,l,224.1807,224.1813,0.017777778,-0.126666667,0,0,0,,0,63,63,155,1,,,,
,,,,,,fe25aa7f628b34e1d780103d,66a626ef09d4e21e1a8894ec,67371d45c30edb7574758dcf,2024-11-15_11h09.09.566,Tarea de género gramatical,2024.2.2,Win32,50,,,,,,,,,,,,,,,,,,,,,,,224.1846,225.319,l,1,0.461199999,,[],[],[],[],[],[],[],0.461199999,1,225.3194,225.8178,,,,,,1163,MAS,AGR,150,carro,el,l,225.8179,225.8185,0.017777778,-0.126666667,0,0,0,,0,64,64,262,1,,,,
,,,,,,fe25aa7f628b34e1d780103d,66a626ef09d4e21e1a8894ec,67371d45c30edb7574758dcf,2024-11-15_11h09.09.566,Tarea de género gramatical,2024.2.2,Win32,50,,,,,,,,,,,,,,,,,,,,,,,225.822,226.8164,l,1,0.321,,[],[],[],[],[],[],[],0.321,1,226.8168,227.3152,,,,,,1271,MAS,AGR,150,sonido,el,l,227.32,227.3225,0.017777778,-0.126666667,0,0,0,,0,65,65,370,1,,,,
,,,,,,fe25aa7f628b34e1d780103d,66a626ef09d4e21e1a8894ec,67371d45c30edb7574758dcf,2024-11-15_11h09.09.566,Tarea de género gramatical,2024.2.2,Win32,50,,,,,,,,,,,,,,,,,,,,,,,227.325,228.3735,a,1,0.380700001,,[],[],[],[],[],[],[],0.380700001,1,228.3738,228.8727,,,,,,1147,FEM,DIS,150,frase,el,a,228.8729,228.8735,0.017777778,-0.126666667,0,0,0,,0,66,66,246,1,,,,
,,,,,,fe25aa7f628b34e1d780103d,66a626ef09d4e21e1a8894ec,67371d45c30edb7574758dcf,2024-11-15_11h09.09.566,Tarea de género gramatical,2024.2.2,Win32,50,,,,,,,,,,,,,,,,,,,,,,,228.8769,229.8918,l,1,0.3415,,[],[],[],[],[],[],[],0.3415,1,229.8921,230.3902,,,,,,1019,MAS,AGR,150,mito,el,l,230.3904,230.3909,0.017777778,-0.126666667,0,0,0,,0,67,67,118,1,,,,
,,,,,,fe25aa7f628b34e1d780103d,66a626ef09d4e21e1a8894ec,67371d45c30edb7574758dcf,2024-11-15_11h09.09.566,Tarea de género gramatical,2024.2.2,Win32,50,,,,,,,,,,,,,,,,,,,,,,,230.3943,231.5289,l,1,0.466700001,,[],[],[],[],[],[],[],0.466700001,1,231.5293,232.0275,,,,,,1254,MAS,CON,150,camión,,l,232.0277,232.0281,0.017777778,-0.126666667,0,0,0,,0,68,68,353,1,,,,
,,,,,,fe25aa7f628b34e1d780103d,66a626ef09d4e21e1a8894ec,67371d45c30edb7574758dcf,2024-11-15_11h09.09.566,Tarea de género gramatical,2024.2.2,Win32,50,,,,,,,,,,,,,,,,,,,,,,,232.0313,233.0858,l,1,0.378099998,,[],[],[],[],[],[],[],0.378099998,1,233.0863,233.5848,,,,,,1206,MAS,CON,150,dinero,,l,233.589,233.5914,0.017777778,-0.126666667,0,0,0,,0,69,69,305,1,,,,
,,,,,,fe25aa7f628b34e1d780103d,66a626ef09d4e21e1a8894ec,67371d45c30edb7574758dcf,2024-11-15_11h09.09.566,Tarea de género gramatical,2024.2.2,Win32,50,,,,,,,,,,,,,,,,,,,,,,,233.5939,234.8428,l,1,0.5761,,[],[],[],[],[],[],[],0.5761,1,234.843,235.342,,,,,,1193,MAS,AGR,150,patio,el,l,235.3422,235.3426,0.017777778,-0.126666667,0,0,0,,0,70,70,292,1,,,,
,,,,,,fe25aa7f628b34e1d780103d,66a626ef09d4e21e1a8894ec,67371d45c30edb7574758dcf,2024-11-15_11h09.09.566,Tarea de género gramatical,2024.2.2,Win32,50,,,,,,,,,,,,,,,,,,,,,,,235.346,236.4603,l,1,0.440699999,,[],[],[],[],[],[],[],0.440699999,1,236.4608,236.9595,,,,,,1008,MAS,CON,150,hilo,,l,236.9596,236.9602,0.017777778,-0.126666667,0,0,0,,0,71,71,107,1,,,,
,,,,,,fe25aa7f628b34e1d780103d,66a626ef09d4e21e1a8894ec,67371d45c30edb7574758dcf,2024-11-15_11h09.09.566,Tarea de género gramatical,2024.2.2,Win32,50,,,,,,,,,,,,,,,,,,,,,,,236.9643,238.0383,l,1,0.4014,,[],[],[],[],[],[],[],0.4014,1,238.0387,238.5374,,,,,,1026,MAS,CON,150,lazo,,l,238.5377,238.5386,0.017777778,-0.126666667,0,0,0,,0,72,72,125,1,,,,
,,,,,,fe25aa7f628b34e1d780103d,66a626ef09d4e21e1a8894ec,67371d45c30edb7574758dcf,2024-11-15_11h09.09.566,Tarea de género gramatical,2024.2.2,Win32,50,,,,,,,,,,,,,,,,,,,,,,,238.5418,239.5754,l,1,0.3611,,[],[],[],[],[],[],[],0.3611,1,239.5758,240.0743,,,,,,1020,MAS,CON,150,puño,,l,240.0744,240.075,0.017777778,-0.126666667,0,0,0,,0,73,73,119,1,,,,
,,,,,,fe25aa7f628b34e1d780103d,66a626ef09d4e21e1a8894ec,67371d45c30edb7574758dcf,2024-11-15_11h09.09.566,Tarea de género gramatical,2024.2.2,Win32,50,,,,,,,,,,,,,,,,,,,,,,,240.0791,241.0927,l,1,0.3371,,[],[],[],[],[],[],[],0.3371,1,241.0932,241.5918,,,,,,1332,MAS,CON,150,océano,,l,241.5968,241.5991,0.017777778,-0.126666667,0,0,0,,0,74,74,431,1,,,,
,,,,,,fe25aa7f628b34e1d780103d,66a626ef09d4e21e1a8894ec,67371d45c30edb7574758dcf,2024-11-15_11h09.09.566,Tarea de género gramatical,2024.2.2,Win32,50,,,,,,,,,,,,,,,,,,,,,,,241.6016,242.7097,a,1,0.4204,,[],[],[],[],[],[],[],0.4204,1,242.71,243.2091,,,,,,1220,FEM,AGR,150,fiesta,la,a,243.2093,243.2098,0.017777778,-0.126666667,0,0,0,,0,75,75,319,1,,,,
,,,,,,fe25aa7f628b34e1d780103d,66a626ef09d4e21e1a8894ec,67371d45c30edb7574758dcf,2024-11-15_11h09.09.566,Tarea de género gramatical,2024.2.2,Win32,50,,,,,,,,,,,,,,,,,,,,,,,243.2133,244.2874,l,1,0.400799999,,[],[],[],[],[],[],[],0.400799999,1,244.2877,244.7865,,,,,,1002,MAS,CON,150,coro,,l,244.7867,244.7872,0.017777778,-0.126666667,0,0,0,,0,76,76,101,1,,,,
,,,,,,fe25aa7f628b34e1d780103d,66a626ef09d4e21e1a8894ec,67371d45c30edb7574758dcf,2024-11-15_11h09.09.566,Tarea de género gramatical,2024.2.2,Win32,50,,,,,,,,,,,,,,,,,,,,,,,244.7906,245.7844,l,1,0.319799999,,[],[],[],[],[],[],[],0.319799999,1,245.7847,246.2842,,,,,,1097,MAS,AGR,150,avión,el,l,246.2844,246.285,0.017777778,-0.126666667,0,0,0,,0,77,77,196,1,,,,
,,,,,,fe25aa7f628b34e1d780103d,66a626ef09d4e21e1a8894ec,67371d45c30edb7574758dcf,2024-11-15_11h09.09.566,Tarea de género gramatical,2024.2.2,Win32,50,,,,,,,,,,,,,,,,,,,,,,,246.2881,247.5223,a,1,0.561299999,,[],[],[],[],[],[],[],0.561299999,1,247.5225,248.021,,,,,,1263,FEM,CON,150,unidad,,a,248.0256,248.0282,0.017777778,-0.126666667,0,0,0,,0,78,78,362,1,,,,
,,,,,,fe25aa7f628b34e1d780103d,66a626ef09d4e21e1a8894ec,67371d45c30edb7574758dcf,2024-11-15_11h09.09.566,Tarea de género gramatical,2024.2.2,Win32,50,,,,,,,,,,,,,,,,,,,,,,,248.0312,249.0394,l,1,0.341,,[],[],[],[],[],[],[],0.341,1,249.0398,249.5387,,,,,,911,MAS,AGR,150,país,el,l,249.5389,249.5394,0.017777778,-0.126666667,0,0,0,,0,79,79,10,1,,,,
,,,,,,fe25aa7f628b34e1d780103d,66a626ef09d4e21e1a8894ec,67371d45c30edb7574758dcf,2024-11-15_11h09.09.566,Tarea de género gramatical,2024.2.2,Win32,50,,,,,,,,,,,,,,,,,,,,,,,249.5432,250.8963,a,1,0.680299999,,[],[],[],[],[],[],[],0.680299999,1,250.8966,251.3957,,,,,,1069,FEM,DIS,150,vista,el,a,251.396,251.3965,0.017777778,-0.126666667,0,0,0,,0,80,80,168,1,,,,
,,,,,,fe25aa7f628b34e1d780103d,66a626ef09d4e21e1a8894ec,67371d45c30edb7574758dcf,2024-11-15_11h09.09.566,Tarea de género gramatical,2024.2.2,Win32,50,,,,,,,,,,,,,,,,,,,,,,,251.3997,252.3939,l,1,0.3206,,[],[],[],[],[],[],[],0.3206,1,252.3942,252.893,,,,,,1288,MAS,DIS,150,empleo,la,l,252.8931,252.8933,0.017777778,-0.126666667,0,0,0,,0,81,81,387,1,,,,
,,,,,,fe25aa7f628b34e1d780103d,66a626ef09d4e21e1a8894ec,67371d45c30edb7574758dcf,2024-11-15_11h09.09.566,Tarea de género gramatical,2024.2.2,Win32,50,,,,,,,,,,,,,,,,,,,,,,,252.8964,253.9722,l,1,0.4015,,[],[],[],[],[],[],[],0.4015,1,253.9725,254.4706,,,,,,1344,MAS,CON,150,límite,,l,254.4707,254.4713,0.017777778,-0.126666667,0,0,0,,0,82,82,443,1,,,,
,,,,,,fe25aa7f628b34e1d780103d,66a626ef09d4e21e1a8894ec,67371d45c30edb7574758dcf,2024-11-15_11h09.09.566,Tarea de género gramatical,2024.2.2,Win32,50,,,,,,,,,,,,,,,,,,,,,,,254.4749,255.6287,a,1,0.4805,,[],[],[],[],[],[],[],0.4805,1,255.6292,256.1278,,,,,,1071,FEM,CON,150,mitad,,a,256.1325,256.1352,0.017777778,-0.126666667,0,0,0,,0,83,83,170,1,,,,
,,,,,,fe25aa7f628b34e1d780103d,66a626ef09d4e21e1a8894ec,67371d45c30edb7574758dcf,2024-11-15_11h09.09.566,Tarea de género gramatical,2024.2.2,Win32,50,,,,,,,,,,,,,,,,,,,,,,,256.1374,257.2477,l,1,0.4419,,[],[],[],[],[],[],[],0.4419,1,257.248,257.7451,,,,,,1290,MAS,CON,150,rostro,,l,257.7453,257.7459,0.017777778,-0.126666667,0,0,0,,0,84,84,389,1,,,,
,,,,,,fe25aa7f628b34e1d780103d,66a626ef09d4e21e1a8894ec,67371d45c30edb7574758dcf,2024-11-15_11h09.09.566,Tarea de género gramatical,2024.2.2,Win32,50,,,,,,,,,,,,,,,,,,,,,,,257.7492,259.1837,a,1,0.760799999,,[],[],[],[],[],[],[],0.760799999,1,259.1841,259.6821,,,,,,1095,FEM,CON,150,pared,,a,259.6823,259.6828,0.017777778,-0.126666667,0,0,0,,0,85,85,194,1,,,,
,,,,,,fe25aa7f628b34e1d780103d,66a626ef09d4e21e1a8894ec,67371d45c30edb7574758dcf,2024-11-15_11h09.09.566,Tarea de género gramatical,2024.2.2,Win32,50,,,,,,,,,,,,,,,,,,,,,,,259.6861,261.0005,a,1,0.641200001,,[],[],[],[],[],[],[],0.641200001,1,261.0007,261.4989,,,,,,1011,FEM,CON,150,goma,,a,261.4992,261.4998,0.017777778,-0.126666667,0,0,0,,0,86,86,110,1,,,,
,,,,,,fe25aa7f628b34e1d780103d,66a626ef09d4e21e1a8894ec,67371d45c30edb7574758dcf,2024-11-15_11h09.09.566,Tarea de género gramatical,2024.2.2,Win32,50,,,,,,,,,,,,,,,,,,,,,,,261.5031,262.5771,a,1,0.400799999,,[],[],[],[],[],[],[],0.400799999,1,262.5774,263.0763,,,,,,1215,FEM,CON,150,manera,,a,263.0813,263.0838,0.017777778,-0.126666667,0,0,0,,0,87,87,314,1,,,,
,,,,,,fe25aa7f628b34e1d780103d,66a626ef09d4e21e1a8894ec,67371d45c30edb7574758dcf,2024-11-15_11h09.09.566,Tarea de género gramatical,2024.2.2,Win32,50,,,,,,,,,,,,,,,,,,,,,,,263.0861,264.2351,a,1,0.481199999,,[],[],[],[],[],[],[],0.481199999,1,264.2355,264.7336,,,,,,1233,FEM,CON,150,locura,,a,264.7339,264.7345,0.017777778,-0.126666667,0,0,0,,0,88,88,332,1,,,,
,,,,,,fe25aa7f628b34e1d780103d,66a626ef09d4e21e1a8894ec,67371d45c30edb7574758dcf,2024-11-15_11h09.09.566,Tarea de género gramatical,2024.2.2,Win32,50,,,,,,,,,,,,,,,,,,,,,,,264.7377,265.7711,l,0,0.3579,,[],[],[],[],[],[],[],0.3579,0,265.7732,266.2712,,,,,,907,FEM,DIS,150,hora,el,a,266.2714,266.2719,0.017777778,-0.126666667,0,0,0,,0,89,89,6,1,,,,
,,,,,,fe25aa7f628b34e1d780103d,66a626ef09d4e21e1a8894ec,67371d45c30edb7574758dcf,2024-11-15_11h09.09.566,Tarea de género gramatical,2024.2.2,Win32,50,,,,,,,,,,,,,,,,,,,,,,,266.2752,267.4306,l,1,0.4814,,[],[],[],[],[],[],[],0.4814,1,267.4334,267.9284,,,,,,1109,MAS,AGR,150,banco,el,l,267.9286,267.9292,0.017777778,-0.126666667,0,0,0,,0,90,90,208,1,,,,
,,,,,,fe25aa7f628b34e1d780103d,66a626ef09d4e21e1a8894ec,67371d45c30edb7574758dcf,2024-11-15_11h09.09.566,Tarea de género gramatical,2024.2.2,Win32,50,,,,,,,,,,,,,,,,,,,,,,,267.9327,269.1072,l,1,0.5041,,[],[],[],[],[],[],[],0.5041,1,269.1075,269.6056,,,,,,1006,MAS,DIS,150,test,la,l,269.6058,269.6064,0.017777778,-0.126666667,0,0,0,,0,91,91,105,1,,,,
,,,,,,fe25aa7f628b34e1d780103d,66a626ef09d4e21e1a8894ec,67371d45c30edb7574758dcf,2024-11-15_11h09.09.566,Tarea de género gramatical,2024.2.2,Win32,50,,,,,,,,,,,,,,,,,,,,,,,269.6095,270.7235,l,1,0.440699999,,[],[],[],[],[],[],[],0.440699999,1,270.724,271.2225,,,,,,984,MAS,CON,150,mago,,l,271.2258,271.2281,0.017777778,-0.126666667,0,0,0,,0,92,92,83,1,,,,
,,,,,,fe25aa7f628b34e1d780103d,66a626ef09d4e21e1a8894ec,67371d45c30edb7574758dcf,2024-11-15_11h09.09.566,Tarea de género gramatical,2024.2.2,Win32,50,,,,,,,,,,,,,,,,,,,,,,,271.2306,272.3018,a,1,0.4011,,[],[],[],[],[],[],[],0.4011,1,272.3022,272.8004,,,,,,1208,FEM,AGR,150,semana,la,a,272.8006,272.8011,0.017777778,-0.126666667,0,0,0,,0,93,93,307,1,,,,
,,,,,,fe25aa7f628b34e1d780103d,66a626ef09d4e21e1a8894ec,67371d45c30edb7574758dcf,2024-11-15_11h09.09.566,Tarea de género gramatical,2024.2.2,Win32,50,,,,,,,,,,,,,,,,,,,,,,,272.8048,273.999,a,1,0.521200001,,[],[],[],[],[],[],[],0.521200001,1,273.9994,274.4975,,,,,,957,FEM,CON,150,moda,,a,274.4977,274.4983,0.017777778,-0.126666667,0,0,0,,0,94,94,56,1,,,,
,,,,,,fe25aa7f628b34e1d780103d,66a626ef09d4e21e1a8894ec,67371d45c30edb7574758dcf,2024-11-15_11h09.09.566,Tarea de género gramatical,2024.2.2,Win32,50,,,,,,,,,,,,,,,,,,,,,,,274.5017,275.5561,l,1,0.3811,,[],[],[],[],[],[],[],0.3811,1,275.5564,276.0551,,,,,,904,MAS,DIS,150,hijo,la,l,276.0553,276.0559,0.017777778,-0.126666667,0,0,0,,0,95,95,3,1,,,,
,,,,,,fe25aa7f628b34e1d780103d,66a626ef09d4e21e1a8894ec,67371d45c30edb7574758dcf,2024-11-15_11h09.09.566,Tarea de género gramatical,2024.2.2,Win32,50,,,,,,,,,,,,,,,,,,,,,,,276.0595,277.1532,l,1,0.420699999,,[],[],[],[],[],[],[],0.420699999,1,277.1536,277.6523,,,,,,1301,MAS,AGR,150,abrigo,el,l,277.658,277.6603,0.017777778,-0.126666667,0,0,0,,0,96,96,400,1,,,,
,,,,,,fe25aa7f628b34e1d780103d,66a626ef09d4e21e1a8894ec,67371d45c30edb7574758dcf,2024-11-15_11h09.09.566,Tarea de género gramatical,2024.2.2,Win32,50,,,,,,,,,,,,,,,,,,,,,,,277.6626,278.6912,l,1,0.3414,,[],[],[],[],[],[],[],0.3414,1,278.6916,279.1899,,,,,,966,MAS,CON,150,muro,,l,279.19,279.1907,0.017777778,-0.126666667,0,0,0,,0,97,97,65,1,,,,
,,,,,,fe25aa7f628b34e1d780103d,66a626ef09d4e21e1a8894ec,67371d45c30edb7574758dcf,2024-11-15_11h09.09.566,Tarea de género gramatical,2024.2.2,Win32,50,,,,,,,,,,,,,,,,,,,,,,,279.1942,280.2683,a,1,0.401,,[],[],[],[],[],[],[],0.401,1,280.2686,280.7673,,,,,,1189,FEM,DIS,150,tabla,el,a,280.7674,280.7681,0.017777778,-0.126666667,0,0,0,,0,98,98,288,1,,,,
,,,,,,fe25aa7f628b34e1d780103d,66a626ef09d4e21e1a8894ec,67371d45c30edb7574758dcf,2024-11-15_11h09.09.566,Tarea de género gramatical,2024.2.2,Win32,50,,,,,,,,,,,,,,,,,,,,,,,280.7714,281.9263,a,1,0.4814,,[],[],[],[],[],[],[],0.4814,1,281.9267,282.4244,,,,,,1142,FEM,AGR,150,pizza,la,a,282.4246,282.4252,0.017777778,-0.126666667,0,0,0,,0,99,99,241,1,,,,
,,,,,,fe25aa7f628b34e1d780103d,66a626ef09d4e21e1a8894ec,67371d45c30edb7574758dcf,2024-11-15_11h09.09.566,Tarea de género gramatical,2024.2.2,Win32,50,,,,,,,,,,,,,,,,,,,,,,,282.4285,283.4637,a,1,0.3625,,[],[],[],[],[],[],[],0.3625,1,283.4639,283.9621,,,,,,937,FEM,DIS,150,sala,el,a,283.9621,283.9624,0.017777778,-0.126666667,0,0,0,,0,100,100,36,1,,,,
,,,,,,fe25aa7f628b34e1d780103d,66a626ef09d4e21e1a8894ec,67371d45c30edb7574758dcf,2024-11-15_11h09.09.566,Tarea de género gramatical,2024.2.2,Win32,50,,,,,,,,,,,,,,,,,,,,,,,283.966,284.9416,l,1,0.302,,[],[],[],[],[],[],[],0.302,1,284.9419,285.4395,,,,,,1090,MAS,DIS,150,campo,la,l,285.4444,285.4466,0.017777778,-0.126666667,0,0,0,,0,101,101,189,1,,,,
,,,,,,fe25aa7f628b34e1d780103d,66a626ef09d4e21e1a8894ec,67371d45c30edb7574758dcf,2024-11-15_11h09.09.566,Tarea de género gramatical,2024.2.2,Win32,50,,,,,,,,,,,,,,,,,,,,,,,285.4489,286.5186,a,1,0.401300001,,[],[],[],[],[],[],[],0.401300001,1,286.519,287.0168,,,,,,1029,FEM,CON,150,rana,,a,287.017,287.0177,0.017777778,-0.126666667,0,0,0,,0,102,102,128,1,,,,
,,,,,,fe25aa7f628b34e1d780103d,66a626ef09d4e21e1a8894ec,67371d45c30edb7574758dcf,2024-11-15_11h09.09.566,Tarea de género gramatical,2024.2.2,Win32,50,,,,,,,,,,,,,,,,,,,,,,,287.0208,288.0752,a,1,0.380799999,,[],[],[],[],[],[],[],0.380799999,1,288.0755,288.5744,,,,,,1299,FEM,CON,150,charla,,a,288.5745,288.5751,0.017777778,-0.126666667,0,0,0,,0,103,103,398,1,,,,
,,,,,,fe25aa7f628b34e1d780103d,66a626ef09d4e21e1a8894ec,67371d45c30edb7574758dcf,2024-11-15_11h09.09.566,Tarea de género gramatical,2024.2.2,Win32,50,,,,,,,,,,,,,,,,,,,,,,,288.5786,289.653,l,1,0.4014,,[],[],[],[],[],[],[],0.4014,1,289.6533,290.1516,,,,,,940,MAS,DIS,150,dios,la,l,290.1519,290.1524,0.017777778,-0.126666667,0,0,0,,0,104,104,39,1,,,,
,,,,,,fe25aa7f628b34e1d780103d,66a626ef09d4e21e1a8894ec,67371d45c30edb7574758dcf,2024-11-15_11h09.09.566,Tarea de género gramatical,2024.2.2,Win32,50,,,,,,,,,,,,,,,,,,,,,,,290.1564,291.2502,l,1,0.420800001,,[],[],[],[],[],[],[],0.420800001,1,291.2504,291.7491,,,,,,1108,MAS,DIS,150,suelo,la,l,291.754,291.7564,0.017777778,-0.126666667,0,0,0,,0,105,105,207,1,,,,
,,,,,,fe25aa7f628b34e1d780103d,66a626ef09d4e21e1a8894ec,67371d45c30edb7574758dcf,2024-11-15_11h09.09.566,Tarea de género gramatical,2024.2.2,Win32,50,,,,,,,,,,,,,,,,,,,,,,,291.7587,292.8271,a,0,0.400700001,,[],[],[],[],[],[],[],0.400700001,0,292.8299,293.3265,,,,,,912,MAS,CON,150,plan,,l,293.3267,293.3272,0.017777778,-0.126666667,0,0,0,,0,106,106,11,1,,,,
,,,,,,fe25aa7f628b34e1d780103d,66a626ef09d4e21e1a8894ec,67371d45c30edb7574758dcf,2024-11-15_11h09.09.566,Tarea de género gramatical,2024.2.2,Win32,50,,,,,,,,,,,,,,,,,,,,,,,293.3308,294.6452,a,1,0.641099998,,[],[],[],[],[],[],[],0.641099998,1,294.6475,295.1435,,,,,,1165,FEM,DIS,150,rueda,el,a,295.1436,295.1442,0.017777778,-0.126666667,0,0,0,,0,107,107,264,1,,,,
,,,,,,fe25aa7f628b34e1d780103d,66a626ef09d4e21e1a8894ec,67371d45c30edb7574758dcf,2024-11-15_11h09.09.566,Tarea de género gramatical,2024.2.2,Win32,50,,,,,,,,,,,,,,,,,,,,,,,295.1479,296.2234,l,1,0.402099998,,[],[],[],[],[],[],[],0.402099998,1,296.2237,296.7209,,,,,,995,MAS,AGR,150,tomo,el,l,296.7211,296.7216,0.017777778,-0.126666667,0,0,0,,0,108,108,94,1,,,,
,,,,,,fe25aa7f628b34e1d780103d,66a626ef09d4e21e1a8894ec,67371d45c30edb7574758dcf,2024-11-15_11h09.09.566,Tarea de género gramatical,2024.2.2,Win32,50,,,,,,,,,,,,,,,,,,,,,,,296.7252,297.7597,l,1,0.3616,,[],[],[],[],[],[],[],0.3616,1,297.76,298.2586,,,,,,1216,MAS,DIS,150,cuerpo,la,l,298.2588,298.2593,0.017777778,-0.126666667,0,0,0,,0,109,109,315,1,,,,
,,,,,,fe25aa7f628b34e1d780103d,66a626ef09d4e21e1a8894ec,67371d45c30edb7574758dcf,2024-11-15_11h09.09.566,Tarea de género gramatical,2024.2.2,Win32,50,,,,,,,,,,,,,,,,,,,,,,,298.2633,299.3967,a,1,0.460800001,,[],[],[],[],[],[],[],0.460800001,1,299.397,299.8957,,,,,,949,FEM,DIS,150,piel,el,a,299.9006,299.9029,0.017777778,-0.126666667,0,0,0,,0,110,110,48,1,,,,
,,,,,,fe25aa7f628b34e1d780103d,66a626ef09d4e21e1a8894ec,67371d45c30edb7574758dcf,2024-11-15_11h09.09.566,Tarea de género gramatical,2024.2.2,Win32,50,,,,,,,,,,,,,,,,,,,,,,,299.905,301.0133,a,1,0.44,,[],[],[],[],[],[],[],0.44,1,301.0135,301.5127,,,,,,1287,FEM,CON,150,página,,a,301.513,301.5137,0.017777778,-0.126666667,0,0,0,,0,111,111,386,1,,,,
,,,,,,fe25aa7f628b34e1d780103d,66a626ef09d4e21e1a8894ec,67371d45c30edb7574758dcf,2024-11-15_11h09.09.566,Tarea de género gramatical,2024.2.2,Win32,50,,,,,,,,,,,,,,,,,,,,,,,301.5174,302.5318,l,1,0.3415,,[],[],[],[],[],[],[],0.3415,1,302.5322,303.0304,,,,,,1169,MAS,AGR,150,primo,el,l,303.0306,303.0311,0.017777778,-0.126666667,0,0,0,,0,112,112,268,1,,,,
,,,,,,fe25aa7f628b34e1d780103d,66a626ef09d4e21e1a8894ec,67371d45c30edb7574758dcf,2024-11-15_11h09.09.566,Tarea de género gramatical,2024.2.2,Win32,50,,,,,,,,,,,,,,,,,,,,,,,303.0346,304.0903,l,1,0.383099998,,[],[],[],[],[],[],[],0.383099998,1,304.0908,304.5879,,,,,,1114,MAS,DIS,150,fondo,la,l,304.5881,304.5886,0.017777778,-0.126666667,0,0,0,,0,113,113,213,1,,,,
,,,,,,fe25aa7f628b34e1d780103d,66a626ef09d4e21e1a8894ec,67371d45c30edb7574758dcf,2024-11-15_11h09.09.566,Tarea de género gramatical,2024.2.2,Win32,50,,,,,,,,,,,,,,,,,,,,,,,304.5923,305.6265,l,1,0.3609,,[],[],[],[],[],[],[],0.3609,1,305.6268,306.1254,,,,,,905,MAS,AGR,150,tipo,el,l,306.1303,306.1327,0.017777778,-0.126666667,0,0,0,,0,114,114,4,1,,,,
,,,,,,fe25aa7f628b34e1d780103d,66a626ef09d4e21e1a8894ec,67371d45c30edb7574758dcf,2024-11-15_11h09.09.566,Tarea de género gramatical,2024.2.2,Win32,50,,,,,,,,,,,,,,,,,,,,,,,306.1351,307.2644,a,1,0.4615,,[],[],[],[],[],[],[],0.4615,1,307.2646,307.7627,,,,,,1334,FEM,AGR,150,corona,la,a,307.7629,307.7632,0.017777778,-0.126666667,0,0,0,,0,115,115,433,1,,,,
,,,,,,fe25aa7f628b34e1d780103d,66a626ef09d4e21e1a8894ec,67371d45c30edb7574758dcf,2024-11-15_11h09.09.566,Tarea de género gramatical,2024.2.2,Win32,50,,,,,,,,,,,,,,,,,,,,,,,307.7669,308.9014,l,1,0.461199999,,[],[],[],[],[],[],[],0.461199999,1,308.9017,309.4002,,,,,,1342,MAS,DIS,150,cuadro,la,l,309.4003,309.4009,0.017777778,-0.126666667,0,0,0,,0,116,116,441,1,,,,
,,,,,,fe25aa7f628b34e1d780103d,66a626ef09d4e21e1a8894ec,67371d45c30edb7574758dcf,2024-11-15_11h09.09.566,Tarea de género gramatical,2024.2.2,Win32,50,,,,,,,,,,,,,,,,,,,,,,,309.4041,310.4187,l,1,0.341,,[],[],[],[],[],[],[],0.341,1,310.4191,310.9175,,,,,,1152,MAS,CON,150,viejo,,l,310.9177,310.9182,0.017777778,-0.126666667,0,0,0,,0,117,117,251,1,,,,
,,,,,,fe25aa7f628b34e1d780103d,66a626ef09d4e21e1a8894ec,67371d45c30edb7574758dcf,2024-11-15_11h09.09.566,Tarea de género gramatical,2024.2.2,Win32,50,,,,,,,,,,,,,,,,,,,,,,,310.9218,311.9561,l,1,0.3611,,[],[],[],[],[],[],[],0.3611,1,311.9565,312.4552,,,,,,1025,MAS,AGR,150,bate,el,l,312.4554,312.456,0.017777778,-0.126666667,0,0,0,,0,118,118,124,1,,,,
,,,,,,fe25aa7f628b34e1d780103d,66a626ef09d4e21e1a8894ec,67371d45c30edb7574758dcf,2024-11-15_11h09.09.566,Tarea de género gramatical,2024.2.2,Win32,50,,,,,,,,,,,,,,,,,,,,,,,312.4595,313.4935,a,1,0.360900002,,[],[],[],[],[],[],[],0.360900002,1,313.4938,313.9925,,,,,,926,FEM,AGR,150,pena,la,a,313.9967,313.9988,0.017777778,-0.126666667,0,0,0,,0,119,119,25,1,,,,
,,,,,,fe25aa7f628b34e1d780103d,66a626ef09d4e21e1a8894ec,67371d45c30edb7574758dcf,2024-11-15_11h09.09.566,Tarea de género gramatical,2024.2.2,Win32,50,,,,,,,,,,,,,,,,,,,,,,,314.0012,315.0112,l,1,0.3411,,[],[],[],[],[],[],[],0.3411,1,315.0116,315.5102,,,,,,1198,MAS,DIS,150,botón,la,l,315.5104,315.5109,0.017777778,-0.126666667,0,0,0,,0,120,120,297,1,,,,
,,,,,,fe25aa7f628b34e1d780103d,66a626ef09d4e21e1a8894ec,67371d45c30edb7574758dcf,2024-11-15_11h09.09.566,Tarea de género gramatical,2024.2.2,Win32,50,,,,,,,,,,,,,,,,,,,,,,,315.5143,316.529,l,1,0.3415,,[],[],[],[],[],[],[],0.3415,1,316.5293,317.0275,,,,,,1091,MAS,AGR,150,dolor,el,l,317.0277,317.0282,0.017777778,-0.126666667,0,0,0,,0,121,121,190,1,,,,
,,,,,,fe25aa7f628b34e1d780103d,66a626ef09d4e21e1a8894ec,67371d45c30edb7574758dcf,2024-11-15_11h09.09.566,Tarea de género gramatical,2024.2.2,Win32,50,,,,,,,,,,,,,,,,,,,,,,,317.0317,318.0262,l,1,0.320700001,,[],[],[],[],[],[],[],0.320700001,1,318.0265,318.5256,,,,,,1115,MAS,AGR,150,hueso,el,l,318.5258,318.526,0.017777778,-0.126666667,0,0,0,,0,122,122,214,1,,,,
,,,,,,fe25aa7f628b34e1d780103d,66a626ef09d4e21e1a8894ec,67371d45c30edb7574758dcf,2024-11-15_11h09.09.566,Tarea de género gramatical,2024.2.2,Win32,50,,,,,,,,,,,,,,,,,,,,,,,318.529,319.5234,l,1,0.321,,[],[],[],[],[],[],[],0.321,1,319.5238,320.0226,,,,,,1116,MAS,CON,150,éxito,,l,320.0273,320.0295,0.017777778,-0.126666667,0,0,0,,0,123,123,215,1,,,,
,,,,,,fe25aa7f628b34e1d780103d,66a626ef09d4e21e1a8894ec,67371d45c30edb7574758dcf,2024-11-15_11h09.09.566,Tarea de género gramatical,2024.2.2,Win32,50,,,,,,,,,,,,,,,,,,,,,,,320.0318,321.1022,l,1,0.402200001,,[],[],[],[],[],[],[],0.402200001,1,321.1023,321.6,,,,,,1330,MAS,DIS,150,título,la,l,321.6002,321.6007,0.017777778,-0.126666667,0,0,0,,0,124,124,429,1,,,,
,,,,,,fe25aa7f628b34e1d780103d,66a626ef09d4e21e1a8894ec,67371d45c30edb7574758dcf,2024-11-15_11h09.09.566,Tarea de género gramatical,2024.2.2,Win32,50,,,,,,,,,,,,,,,,,,,,,,,321.604,322.619,l,1,0.341799999,,[],[],[],[],[],[],[],0.341799999,1,322.6193,323.1175,,,,,,1074,MAS,CON,150,perro,,l,323.1177,323.1182,0.017777778,-0.126666667,0,0,0,,0,125,125,173,1,,,,
,,,,,,fe25aa7f628b34e1d780103d,66a626ef09d4e21e1a8894ec,67371d45c30edb7574758dcf,2024-11-15_11h09.09.566,Tarea de género gramatical,2024.2.2,Win32,50,,,,,,,,,,,,,,,,,,,,,,,323.1214,324.1958,a,1,0.401,,[],[],[],[],[],[],[],0.401,1,324.1961,324.6949,,,,,,1112,FEM,AGR,150,cinta,la,a,324.6951,324.6956,0.017777778,-0.126666667,0,0,0,,0,126,126,211,1,,,,
,,,,,,fe25aa7f628b34e1d780103d,66a626ef09d4e21e1a8894ec,67371d45c30edb7574758dcf,2024-11-15_11h09.09.566,Tarea de género gramatical,2024.2.2,Win32,50,,,,,,,,,,,,,,,,,,,,,,,324.699,325.6731,l,1,0.300599998,,[],[],[],[],[],[],[],0.300599998,1,325.6734,326.1726,,,,,,1085,MAS,AGR,150,sueño,el,l,326.1727,326.1733,0.017777778,-0.126666667,0,0,0,,0,127,127,184,1,,,,
,,,,,,fe25aa7f628b34e1d780103d,66a626ef09d4e21e1a8894ec,67371d45c30edb7574758dcf,2024-11-15_11h09.09.566,Tarea de género gramatical,2024.2.2,Win32,50,,,,,,,,,,,,,,,,,,,,,,,326.1765,327.3704,a,1,0.5205,,[],[],[],[],[],[],[],0.5205,1,327.3708,327.8695,,,,,,1027,FEM,DIS,150,cuna,el,a,327.8745,327.8768,0.017777778,-0.126666667,0,0,0,,0,128,128,126,1,,,,
,,,,,,fe25aa7f628b34e1d780103d,66a626ef09d4e21e1a8894ec,67371d45c30edb7574758dcf,2024-11-15_11h09.09.566,Tarea de género gramatical,2024.2.2,Win32,50,,,,,,,,,,,,,,,,,,,,,,,327.8791,328.8884,l,1,0.3414,,[],[],[],[],[],[],[],0.3414,1,328.8888,329.3871,,,,,,959,MAS,AGR,150,lobo,el,l,329.3873,329.3879,0.017777778,-0.126666667,0,0,0,,0,129,129,58,1,,,,
,,,,,,fe25aa7f628b34e1d780103d,66a626ef09d4e21e1a8894ec,67371d45c30edb7574758dcf,2024-11-15_11h09.09.566,Tarea de género gramatical,2024.2.2,Win32,50,,,,,,,,,,,,,,,,,,,,,,,329.3914,330.5652,a,1,0.5005,,[],[],[],[],[],[],[],0.5005,1,330.5656,331.0637,,,,,,1052,FEM,AGR,150,gente,la,a,331.0637,331.064,0.017777778,-0.126666667,0,0,0,,0,130,130,151,1,,,,
,,,,,,fe25aa7f628b34e1d780103d,66a626ef09d4e21e1a8894ec,67371d45c30edb7574758dcf,2024-11-15_11h09.09.566,Tarea de género gramatical,2024.2.2,Win32,50,,,,,,,,,,,,,,,,,,,,,,,331.0666,332.2431,a,1,0.501200001,,[],[],[],[],[],[],[],0.501200001,1,332.2433,332.7416,,,,,,1160,FEM,AGR,150,barra,la,a,332.7418,332.7424,0.017777778,-0.126666667,0,0,0,,0,131,131,259,1,,,,
,,,,,,fe25aa7f628b34e1d780103d,66a626ef09d4e21e1a8894ec,67371d45c30edb7574758dcf,2024-11-15_11h09.09.566,Tarea de género gramatical,2024.2.2,Win32,50,,,,,,,,,,,,,,,,,,,,,,,332.746,333.9604,l,0,0.541200001,,[],[],[],[],[],[],[],0.541200001,0,333.963,334.4588,,,,,,1202,FEM,AGR,150,cabeza,la,a,334.464,334.4662,0.017777778,-0.126666667,0,0,0,,0,132,132,301,1,,,,
,,,,,,fe25aa7f628b34e1d780103d,66a626ef09d4e21e1a8894ec,67371d45c30edb7574758dcf,2024-11-15_11h09.09.566,Tarea de género gramatical,2024.2.2,Win32,50,,,,,,,,,,,,,,,,,,,,,,,334.4686,335.7367,l,1,0.600700001,,[],[],[],[],[],[],[],0.600700001,1,335.7396,336.2358,,,,,,1048,MAS,DIS,150,surf,la,l,336.236,336.2366,0.017777778,-0.126666667,0,0,0,,0,133,133,147,1,,,,
,,,,,,fe25aa7f628b34e1d780103d,66a626ef09d4e21e1a8894ec,67371d45c30edb7574758dcf,2024-11-15_11h09.09.566,Tarea de género gramatical,2024.2.2,Win32,50,,,,,,,,,,,,,,,,,,,,,,,336.2401,337.294,a,1,0.380799999,,[],[],[],[],[],[],[],0.380799999,1,337.2943,337.7932,,,,,,1232,FEM,AGR,150,basura,la,a,337.7933,337.7936,0.017777778,-0.126666667,0,0,0,,0,134,134,331,1,,,,
,,,,,,fe25aa7f628b34e1d780103d,66a626ef09d4e21e1a8894ec,67371d45c30edb7574758dcf,2024-11-15_11h09.09.566,Tarea de género gramatical,2024.2.2,Win32,50,,,,,,,,,,,,,,,,,,,,,,,337.7968,338.8326,a,1,0.3616,,[],[],[],[],[],[],[],0.3616,1,338.8329,339.3306,,,,,,920,FEM,AGR,150,ropa,la,a,339.3309,339.3316,0.017777778,-0.126666667,0,0,0,,0,135,135,19,1,,,,
,,,,,,fe25aa7f628b34e1d780103d,66a626ef09d4e21e1a8894ec,67371d45c30edb7574758dcf,2024-11-15_11h09.09.566,Tarea de género gramatical,2024.2.2,Win32,50,,,,,,,,,,,,,,,,,,,,,,,339.3345,340.369,l,1,0.355299999,,[],[],[],[],[],[],[],0.355299999,1,340.3693,340.8682,,,,,,960,MAS,CON,150,tono,,l,340.8683,340.8689,0.017777778,-0.126666667,0,0,0,,0,136,136,59,1,,,,
,,,,,,fe25aa7f628b34e1d780103d,66a626ef09d4e21e1a8894ec,67371d45c30edb7574758dcf,2024-11-15_11h09.09.566,Tarea de género gramatical,2024.2.2,Win32,50,,,,,,,,,,,,,,,,,,,,,,,340.8728,341.9492,l,1,0.403700001,,[],[],[],[],[],[],[],0.403700001,1,341.9493,342.4456,,,,,,1277,MAS,AGR,150,jardín,el,l,342.4504,342.4529,0.017777778,-0.126666667,0,0,0,,0,137,137,376,1,,,,
,,,,,,fe25aa7f628b34e1d780103d,66a626ef09d4e21e1a8894ec,67371d45c30edb7574758dcf,2024-11-15_11h09.09.566,Tarea de género gramatical,2024.2.2,Win32,50,,,,,,,,,,,,,,,,,,,,,,,342.4553,343.4449,l,1,0.321799999,,[],[],[],[],[],[],[],0.321799999,1,343.4452,343.9423,,,,,,1098,MAS,CON,150,hotel,,l,343.9425,343.9427,0.017777778,-0.126666667,0,0,0,,0,138,138,197,1,,,,
,,,,,,fe25aa7f628b34e1d780103d,66a626ef09d4e21e1a8894ec,67371d45c30edb7574758dcf,2024-11-15_11h09.09.566,Tarea de género gramatical,2024.2.2,Win32,50,,,,,,,,,,,,,,,,,,,,,,,343.9443,345.3212,a,1,0.7064,,[],[],[],[],[],[],[],0.7064,1,345.3216,345.8201,,,,,,1135,FEM,DIS,150,torre,el,a,345.8203,345.8208,0.017777778,-0.126666667,0,0,0,,0,139,139,234,1,,,,
,,,,,,fe25aa7f628b34e1d780103d,66a626ef09d4e21e1a8894ec,67371d45c30edb7574758dcf,2024-11-15_11h09.09.566,Tarea de género gramatical,2024.2.2,Win32,50,,,,,,,,,,,,,,,,,,,,,,,345.8244,346.8979,l,1,0.3989,,[],[],[],[],[],[],[],0.3989,1,346.8981,347.3973,,,,,,1200,MAS,CON,150,túnel,,l,347.3976,347.3981,0.017777778,-0.126666667,0,0,0,,0,140,140,299,1,,,,
,,,,,,fe25aa7f628b34e1d780103d,66a626ef09d4e21e1a8894ec,67371d45c30edb7574758dcf,2024-11-15_11h09.09.566,Tarea de género gramatical,2024.2.2,Win32,50,,,,,,,,,,,,,,,,,,,,,,,347.4017,348.5763,l,0,0.501199999,,[],[],[],[],[],[],[],0.501199999,0,348.579,349.0748,,,,,,1099,FEM,DIS,150,nariz,el,a,349.0798,349.082,0.017777778,-0.126666667,0,0,0,,0,141,141,198,1,,,,
,,,,,,fe25aa7f628b34e1d780103d,66a626ef09d4e21e1a8894ec,67371d45c30edb7574758dcf,2024-11-15_11h09.09.566,Tarea de género gramatical,2024.2.2,Win32,50,,,,,,,,,,,,,,,,,,,,,,,349.0849,350.2337,l,1,0.481699999,,[],[],[],[],[],[],[],0.481699999,1,350.2368,350.7321,,,,,,1187,MAS,AGR,150,plato,el,l,350.7323,350.7328,0.017777778,-0.126666667,0,0,0,,0,142,142,286,1,,,,
,,,,,,fe25aa7f628b34e1d780103d,66a626ef09d4e21e1a8894ec,67371d45c30edb7574758dcf,2024-11-15_11h09.09.566,Tarea de género gramatical,2024.2.2,Win32,50,,,,,,,,,,,,,,,,,,,,,,,350.7362,351.791,l,1,0.3811,,[],[],[],[],[],[],[],0.3811,1,351.7913,352.2895,,,,,,1295,MAS,AGR,150,correo,el,l,352.2896,352.2902,0.017777778,-0.126666667,0,0,0,,0,143,143,394,1,,,,
,,,,,,fe25aa7f628b34e1d780103d,66a626ef09d4e21e1a8894ec,67371d45c30edb7574758dcf,2024-11-15_11h09.09.566,Tarea de género gramatical,2024.2.2,Win32,50,,,,,,,,,,,,,,,,,,,,,,,352.2935,353.6085,a,1,0.641299999,,[],[],[],[],[],[],[],0.641299999,1,353.6088,354.1065,,,,,,1059,FEM,CON,150,clase,,a,354.1067,354.1072,0.017777778,-0.126666667,0,0,0,,0,144,144,158,1,,,,
,,,,,,fe25aa7f628b34e1d780103d,66a626ef09d4e21e1a8894ec,67371d45c30edb7574758dcf,2024-11-15_11h09.09.566,Tarea de género gramatical,2024.2.2,Win32,50,,,,,,,,,,,,,,,,,,,,,,,354.1109,355.2853,a,1,0.5009,,[],[],[],[],[],[],[],0.5009,1,355.2856,355.7837,,,,,,1251,FEM,CON,150,espada,,a,355.7838,355.7844,0.017777778,-0.126666667,0,0,0,,0,145,145,350,1,,,,
,,,,,,fe25aa7f628b34e1d780103d,66a626ef09d4e21e1a8894ec,67371d45c30edb7574758dcf,2024-11-15_11h09.09.566,Tarea de género gramatical,2024.2.2,Win32,50,,,,,,,,,,,,,,,,,,,,,,,355.7878,356.8428,l,1,0.3814,,[],[],[],[],[],[],[],0.3814,1,356.8431,357.3411,,,,,,1235,MAS,AGR,150,montón,el,l,357.3461,357.3483,0.017777778,-0.126666667,0,0,0,,0,146,146,334,1,,,,
,,,,,,fe25aa7f628b34e1d780103d,66a626ef09d4e21e1a8894ec,67371d45c30edb7574758dcf,2024-11-15_11h09.09.566,Tarea de género gramatical,2024.2.2,Win32,50,,,,,,,,,,,,,,,,,,,,,,,357.3507,358.401,a,1,0.3811,,[],[],[],[],[],[],[],0.3811,1,358.4014,358.8985,,,,,,1214,FEM,AGR,150,señora,la,a,358.8987,358.899,0.017777778,-0.126666667,0,0,0,,0,147,147,313,1,,,,
,,,,,,fe25aa7f628b34e1d780103d,66a626ef09d4e21e1a8894ec,67371d45c30edb7574758dcf,2024-11-15_11h09.09.566,Tarea de género gramatical,2024.2.2,Win32,50,,,,,,,,,,,,,,,,,,,,,,,358.9026,359.9372,l,1,0.361199999,,[],[],[],[],[],[],[],0.361199999,1,359.9375,360.4362,,,,,,1350,MAS,CON,150,conejo,,l,360.4363,360.4369,0.017777778,-0.126666667,0,0,0,,0,148,148,449,1,,,,
,,,,,,fe25aa7f628b34e1d780103d,66a626ef09d4e21e1a8894ec,67371d45c30edb7574758dcf,2024-11-15_11h09.09.566,Tarea de género gramatical,2024.2.2,Win32,50,,,,,,,,,,,,,,,,,,,,,,,360.4401,361.4957,l,1,0.3819,,[],[],[],[],[],[],[],0.3819,1,361.496,361.9934,,,,,,941,MAS,AGR,150,bote,el,l,361.9936,361.9941,0.017777778,-0.126666667,0,0,0,,0,149,149,40,1,,,,
,,,,,,fe25aa7f628b34e1d780103d,66a626ef09d4e21e1a8894ec,67371d45c30edb7574758dcf,2024-11-15_11h09.09.566,Tarea de género gramatical,2024.2.2,Win32,50,,,,,,,,,,,,,,,,,,,,,,,361.9976,363.1725,l,1,0.5014,,[],[],[],[],[],[],[],0.5014,1,363.1728,363.6706,,,,,,1312,MAS,DIS,150,espejo,la,l,363.6758,409.9572,0.017777778,-0.126666667,0,0,0,space,0,150,150,411,1,46.2539,,,
,,,,,,fe25aa7f628b34e1d780103d,66a626ef09d4e21e1a8894ec,67371d45c30edb7574758dcf,2024-11-15_11h09.09.566,Tarea de género gramatical,2024.2.2,Win32,50,,,,,,,,,,,,,,,,,,,,,,,409.9605,411.0121,l,1,0.378199999,,[],[],[],[],[],[],[],0.378199999,1,411.0123,411.5118,,,,,,996,MAS,CON,150,pato,,l,411.512,411.5126,0.017777778,-0.126666667,0,0,0,,0,151,151,95,1,,,,
,,,,,,fe25aa7f628b34e1d780103d,66a626ef09d4e21e1a8894ec,67371d45c30edb7574758dcf,2024-11-15_11h09.09.566,Tarea de género gramatical,2024.2.2,Win32,50,,,,,,,,,,,,,,,,,,,,,,,411.516,414.1677,,0,,,[],[],[],[],[],[],[],0.378199999,-1,414.1708,414.6667,,,,,,1311,FEM,CON,150,actriz,,a,414.6668,414.6675,0.017777778,-0.126666667,0,0,0,,0,152,152,410,1,,,,
,,,,,,fe25aa7f628b34e1d780103d,66a626ef09d4e21e1a8894ec,67371d45c30edb7574758dcf,2024-11-15_11h09.09.566,Tarea de género gramatical,2024.2.2,Win32,50,,,,,,,,,,,,,,,,,,,,,,,414.6707,415.7845,l,1,0.438900002,,[],[],[],[],[],[],[],0.438900002,1,415.7861,416.2839,,,,,,989,MAS,AGR,150,maíz,el,l,416.2842,416.2847,0.017777778,-0.126666667,0,0,0,,0,153,153,88,1,,,,
,,,,,,fe25aa7f628b34e1d780103d,66a626ef09d4e21e1a8894ec,67371d45c30edb7574758dcf,2024-11-15_11h09.09.566,Tarea de género gramatical,2024.2.2,Win32,50,,,,,,,,,,,,,,,,,,,,,,,416.2879,417.3022,l,1,0.336299999,,[],[],[],[],[],[],[],0.336299999,1,417.3026,417.8015,,,,,,972,MAS,CON,150,hoyo,,l,417.8018,417.8024,0.017777778,-0.126666667,0,0,0,,0,154,154,71,1,,,,
,,,,,,fe25aa7f628b34e1d780103d,66a626ef09d4e21e1a8894ec,67371d45c30edb7574758dcf,2024-11-15_11h09.09.566,Tarea de género gramatical,2024.2.2,Win32,50,,,,,,,,,,,,,,,,,,,,,,,417.8056,418.8402,a,1,0.360900002,,[],[],[],[],[],[],[],0.360900002,1,418.8405,419.3391,,,,,,963,FEM,CON,150,fila,,a,419.3447,419.348,0.017777778,-0.126666667,0,0,0,,0,155,155,62,1,,,,
,,,,,,fe25aa7f628b34e1d780103d,66a626ef09d4e21e1a8894ec,67371d45c30edb7574758dcf,2024-11-15_11h09.09.566,Tarea de género gramatical,2024.2.2,Win32,50,,,,,,,,,,,,,,,,,,,,,,,419.3507,420.398,a,1,0.361099998,,[],[],[],[],[],[],[],0.361099998,1,420.3982,420.8965,,,,,,1022,FEM,AGR,150,loca,la,a,420.8967,420.8972,0.017777778,-0.126666667,0,0,0,,0,156,156,121,1,,,,
,,,,,,fe25aa7f628b34e1d780103d,66a626ef09d4e21e1a8894ec,67371d45c30edb7574758dcf,2024-11-15_11h09.09.566,Tarea de género gramatical,2024.2.2,Win32,50,,,,,,,,,,,,,,,,,,,,,,,420.9006,421.9348,l,1,0.3609,,[],[],[],[],[],[],[],0.3609,1,421.9352,422.4335,,,,,,1054,MAS,DIS,150,padre,la,l,422.4336,422.4339,0.017777778,-0.126666667,0,0,0,,0,157,157,153,1,,,,
,,,,,,fe25aa7f628b34e1d780103d,66a626ef09d4e21e1a8894ec,67371d45c30edb7574758dcf,2024-11-15_11h09.09.566,Tarea de género gramatical,2024.2.2,Win32,50,,,,,,,,,,,,,,,,,,,,,,,422.4358,423.4324,a,1,0.3209,,[],[],[],[],[],[],[],0.3209,1,423.4326,423.9315,,,,,,1304,FEM,AGR,150,gloria,la,a,423.9317,423.9323,0.017777778,-0.126666667,0,0,0,,0,158,158,403,1,,,,
,,,,,,fe25aa7f628b34e1d780103d,66a626ef09d4e21e1a8894ec,67371d45c30edb7574758dcf,2024-11-15_11h09.09.566,Tarea de género gramatical,2024.2.2,Win32,50,,,,,,,,,,,,,,,,,,,,,,,423.9357,424.89,a,1,0.2811,,[],[],[],[],[],[],[],0.2811,1,424.8903,425.3891,,,,,,932,FEM,AGR,150,caja,la,a,425.3939,425.3965,0.017777778,-0.126666667,0,0,0,,0,159,159,31,1,,,,
,,,,,,fe25aa7f628b34e1d780103d,66a626ef09d4e21e1a8894ec,67371d45c30edb7574758dcf,2024-11-15_11h09.09.566,Tarea de género gramatical,2024.2.2,Win32,50,,,,,,,,,,,,,,,,,,,,,,,425.3987,426.428,a,1,0.3436,,[],[],[],[],[],[],[],0.3436,1,426.4283,426.9267,,,,,,1347,FEM,CON,150,lógica,,a,426.927,426.9274,0.017777778,-0.126666667,0,0,0,,0,160,160,446,1,,,,
,,,,,,fe25aa7f628b34e1d780103d,66a626ef09d4e21e1a8894ec,67371d45c30edb7574758dcf,2024-11-15_11h09.09.566,Tarea de género gramatical,2024.2.2,Win32,50,,,,,,,,,,,,,,,,,,,,,,,426.9308,427.9447,l,0,0.340900002,,[],[],[],[],[],[],[],0.340900002,0,427.9475,428.444,,,,,,1105,FEM,DIS,150,reina,el,a,428.4441,428.4447,0.017777778,-0.126666667,0,0,0,,0,161,161,204,1,,,,
,,,,,,fe25aa7f628b34e1d780103d,66a626ef09d4e21e1a8894ec,67371d45c30edb7574758dcf,2024-11-15_11h09.09.566,Tarea de género gramatical,2024.2.2,Win32,50,,,,,,,,,,,,,,,,,,,,,,,428.4481,429.6424,l,1,0.521199999,,[],[],[],[],[],[],[],0.521199999,1,429.6457,430.1413,,,,,,1242,MAS,CON,150,abuelo,,l,430.1414,430.142,0.017777778,-0.126666667,0,0,0,,0,162,162,341,1,,,,
,,,,,,fe25aa7f628b34e1d780103d,66a626ef09d4e21e1a8894ec,67371d45c30edb7574758dcf,2024-11-15_11h09.09.566,Tarea de género gramatical,2024.2.2,Win32,50,,,,,,,,,,,,,,,,,,,,,,,430.1453,431.1405,a,1,0.321700001,,[],[],[],[],[],[],[],0.321700001,1,431.1407,431.6388,,,,,,927,FEM,CON,150,mesa,,a,431.639,431.6395,0.017777778,-0.126666667,0,0,0,,0,163,163,26,1,,,,
,,,,,,fe25aa7f628b34e1d780103d,66a626ef09d4e21e1a8894ec,67371d45c30edb7574758dcf,2024-11-15_11h09.09.566,Tarea de género gramatical,2024.2.2,Win32,50,,,,,,,,,,,,,,,,,,,,,,,431.6431,432.6377,l,1,0.321,,[],[],[],[],[],[],[],0.321,1,432.638,433.1363,,,,,,1013,MAS,AGR,150,toro,el,l,433.141,433.1432,0.017777778,-0.126666667,0,0,0,,0,164,164,112,1,,,,
,,,,,,fe25aa7f628b34e1d780103d,66a626ef09d4e21e1a8894ec,67371d45c30edb7574758dcf,2024-11-15_11h09.09.566,Tarea de género gramatical,2024.2.2,Win32,50,,,,,,,,,,,,,,,,,,,,,,,433.1458,434.1748,a,1,0.360799999,,[],[],[],[],[],[],[],0.360799999,1,434.1753,434.6738,,,,,,1185,FEM,CON,150,mafia,,a,434.674,434.6745,0.017777778,-0.126666667,0,0,0,,0,165,165,284,1,,,,
,,,,,,fe25aa7f628b34e1d780103d,66a626ef09d4e21e1a8894ec,67371d45c30edb7574758dcf,2024-11-15_11h09.09.566,Tarea de género gramatical,2024.2.2,Win32,50,,,,,,,,,,,,,,,,,,,,,,,434.6777,435.8121,a,1,0.4629,,[],[],[],[],[],[],[],0.4629,1,435.8124,436.3111,,,,,,1149,FEM,CON,150,crema,,a,436.3113,436.3118,0.017777778,-0.126666667,0,0,0,,0,166,166,248,1,,,,
,,,,,,fe25aa7f628b34e1d780103d,66a626ef09d4e21e1a8894ec,67371d45c30edb7574758dcf,2024-11-15_11h09.09.566,Tarea de género gramatical,2024.2.2,Win32,50,,,,,,,,,,,,,,,,,,,,,,,436.3153,437.3698,l,0,0.381,,[],[],[],[],[],[],[],0.381,0,437.3726,437.8685,,,,,,931,FEM,DIS,150,edad,el,a,437.8686,437.8692,0.017777778,-0.126666667,0,0,0,,0,167,167,30,1,,,,
,,,,,,fe25aa7f628b34e1d780103d,66a626ef09d4e21e1a8894ec,67371d45c30edb7574758dcf,2024-11-15_11h09.09.566,Tarea de género gramatical,2024.2.2,Win32,50,,,,,,,,,,,,,,,,,,,,,,,437.8726,438.9476,l,1,0.4016,,[],[],[],[],[],[],[],0.4016,1,438.95,439.446,,,,,,1092,MAS,CON,150,grupo,,l,439.4505,439.453,0.017777778,-0.126666667,0,0,0,,0,168,168,191,1,,,,
,,,,,,fe25aa7f628b34e1d780103d,66a626ef09d4e21e1a8894ec,67371d45c30edb7574758dcf,2024-11-15_11h09.09.566,Tarea de género gramatical,2024.2.2,Win32,50,,,,,,,,,,,,,,,,,,,,,,,439.4554,440.5642,l,1,0.4409,,[],[],[],[],[],[],[],0.4409,1,440.5647,441.0631,,,,,,1253,MAS,AGR,150,verano,el,l,441.0633,441.0635,0.017777778,-0.126666667,0,0,0,,0,169,169,352,1,,,,
,,,,,,fe25aa7f628b34e1d780103d,66a626ef09d4e21e1a8894ec,67371d45c30edb7574758dcf,2024-11-15_11h09.09.566,Tarea de género gramatical,2024.2.2,Win32,50,,,,,,,,,,,,,,,,,,,,,,,441.0669,442.2615,a,1,0.5209,,[],[],[],[],[],[],[],0.5209,1,442.2618,442.7605,,,,,,1321,FEM,DIS,150,novela,el,a,442.7608,442.7612,0.017777778,-0.126666667,0,0,0,,0,170,170,420,1,,,,
,,,,,,fe25aa7f628b34e1d780103d,66a626ef09d4e21e1a8894ec,67371d45c30edb7574758dcf,2024-11-15_11h09.09.566,Tarea de género gramatical,2024.2.2,Win32,50,,,,,,,,,,,,,,,,,,,,,,,442.7646,443.7793,a,1,0.3414,,[],[],[],[],[],[],[],0.3414,1,443.7796,444.2781,,,,,,1293,FEM,CON,150,alarma,,a,444.2784,444.2789,0.017777778,-0.126666667,0,0,0,,0,171,171,392,1,,,,
,,,,,,fe25aa7f628b34e1d780103d,66a626ef09d4e21e1a8894ec,67371d45c30edb7574758dcf,2024-11-15_11h09.09.566,Tarea de género gramatical,2024.2.2,Win32,50,,,,,,,,,,,,,,,,,,,,,,,444.2828,445.2764,l,1,0.3209,,[],[],[],[],[],[],[],0.3209,1,445.2769,445.7755,,,,,,1043,MAS,AGR,150,faro,el,l,445.7757,445.7762,0.017777778,-0.126666667,0,0,0,,0,172,172,142,1,,,,
,,,,,,fe25aa7f628b34e1d780103d,66a626ef09d4e21e1a8894ec,67371d45c30edb7574758dcf,2024-11-15_11h09.09.566,Tarea de género gramatical,2024.2.2,Win32,50,,,,,,,,,,,,,,,,,,,,,,,445.7799,446.8138,a,1,0.360800001,,[],[],[],[],[],[],[],0.360800001,1,446.8143,447.3129,,,,,,1148,FEM,AGR,150,letra,la,a,447.3177,447.3199,0.017777778,-0.126666667,0,0,0,,0,173,173,247,1,,,,
,,,,,,fe25aa7f628b34e1d780103d,66a626ef09d4e21e1a8894ec,67371d45c30edb7574758dcf,2024-11-15_11h09.09.566,Tarea de género gramatical,2024.2.2,Win32,50,,,,,,,,,,,,,,,,,,,,,,,447.3229,448.3723,l,1,0.3815,,[],[],[],[],[],[],[],0.3815,1,448.3726,448.8705,,,,,,977,MAS,AGR,150,pico,el,l,448.8706,448.8711,0.017777778,-0.126666667,0,0,0,,0,174,174,76,1,,,,
,,,,,,fe25aa7f628b34e1d780103d,66a626ef09d4e21e1a8894ec,67371d45c30edb7574758dcf,2024-11-15_11h09.09.566,Tarea de género gramatical,2024.2.2,Win32,50,,,,,,,,,,,,,,,,,,,,,,,448.8746,449.9092,a,1,0.3615,,[],[],[],[],[],[],[],0.3615,1,449.9095,450.4078,,,,,,1064,FEM,AGR,150,novia,la,a,450.408,450.4085,0.017777778,-0.126666667,0,0,0,,0,175,175,163,1,,,,
,,,,,,fe25aa7f628b34e1d780103d,66a626ef09d4e21e1a8894ec,67371d45c30edb7574758dcf,2024-11-15_11h09.09.566,Tarea de género gramatical,2024.2.2,Win32,50,,,,,,,,,,,,,,,,,,,,,,,450.4117,451.5269,a,1,0.4415,,[],[],[],[],[],[],[],0.4415,1,451.5271,452.0253,,,,,,1047,FEM,CON,150,grúa,,a,452.0254,452.0259,0.017777778,-0.126666667,0,0,0,,0,176,176,146,1,,,,
,,,,,,fe25aa7f628b34e1d780103d,66a626ef09d4e21e1a8894ec,67371d45c30edb7574758dcf,2024-11-15_11h09.09.566,Tarea de género gramatical,2024.2.2,Win32,50,,,,,,,,,,,,,,,,,,,,,,,452.0292,453.304,l,1,0.601200001,,[],[],[],[],[],[],[],0.601200001,1,453.3042,453.8024,,,,,,952,MAS,DIS,150,lago,la,l,453.807,453.8092,0.017777778,-0.126666667,0,0,0,,0,177,177,51,1,,,,
,,,,,,fe25aa7f628b34e1d780103d,66a626ef09d4e21e1a8894ec,67371d45c30edb7574758dcf,2024-11-15_11h09.09.566,Tarea de género gramatical,2024.2.2,Win32,50,,,,,,,,,,,,,,,,,,,,,,,453.8115,454.8805,l,1,0.400699999,,[],[],[],[],[],[],[],0.400699999,1,454.881,455.3796,,,,,,1205,MAS,AGR,150,hombre,el,l,455.3798,455.3804,0.017777778,-0.126666667,0,0,0,,0,178,178,304,1,,,,
,,,,,,fe25aa7f628b34e1d780103d,66a626ef09d4e21e1a8894ec,67371d45c30edb7574758dcf,2024-11-15_11h09.09.566,Tarea de género gramatical,2024.2.2,Win32,50,,,,,,,,,,,,,,,,,,,,,,,455.3839,456.4991,a,0,0.441299999,,[],[],[],[],[],[],[],0.441299999,0,456.5018,456.997,,,,,,1306,MAS,DIS,150,premio,la,l,456.9972,456.9978,0.017777778,-0.126666667,0,0,0,,0,179,179,405,1,,,,
,,,,,,fe25aa7f628b34e1d780103d,66a626ef09d4e21e1a8894ec,67371d45c30edb7574758dcf,2024-11-15_11h09.09.566,Tarea de género gramatical,2024.2.2,Win32,50,,,,,,,,,,,,,,,,,,,,,,,457.0011,458.3157,l,1,0.6406,,[],[],[],[],[],[],[],0.6406,1,458.3183,458.8139,,,,,,1318,MAS,DIS,150,pájaro,la,l,458.8141,458.8146,0.017777778,-0.126666667,0,0,0,,0,180,180,417,1,,,,
,,,,,,fe25aa7f628b34e1d780103d,66a626ef09d4e21e1a8894ec,67371d45c30edb7574758dcf,2024-11-15_11h09.09.566,Tarea de género gramatical,2024.2.2,Win32,50,,,,,,,,,,,,,,,,,,,,,,,458.8177,459.9731,l,1,0.481300001,,[],[],[],[],[],[],[],0.481300001,1,459.9734,460.4713,,,,,,1236,MAS,CON,150,crimen,,l,460.4715,460.472,0.017777778,-0.126666667,0,0,0,,0,181,181,335,1,,,,
,,,,,,fe25aa7f628b34e1d780103d,66a626ef09d4e21e1a8894ec,67371d45c30edb7574758dcf,2024-11-15_11h09.09.566,Tarea de género gramatical,2024.2.2,Win32,50,,,,,,,,,,,,,,,,,,,,,,,460.4768,461.49,l,1,0.341200001,,[],[],[],[],[],[],[],0.341200001,1,461.4903,461.9886,,,,,,1031,MAS,AGR,150,kilo,el,l,461.9955,461.998,0.017777778,-0.126666667,0,0,0,,0,182,182,130,1,,,,
,,,,,,fe25aa7f628b34e1d780103d,66a626ef09d4e21e1a8894ec,67371d45c30edb7574758dcf,2024-11-15_11h09.09.566,Tarea de género gramatical,2024.2.2,Win32,50,,,,,,,,,,,,,,,,,,,,,,,462.0003,463.0872,l,1,0.403099998,,[],[],[],[],[],[],[],0.403099998,1,463.0876,463.5865,,,,,,1218,MAS,CON,150,pueblo,,l,463.5867,463.5873,0.017777778,-0.126666667,0,0,0,,0,183,183,317,1,,,,
,,,,,,fe25aa7f628b34e1d780103d,66a626ef09d4e21e1a8894ec,67371d45c30edb7574758dcf,2024-11-15_11h09.09.566,Tarea de género gramatical,2024.2.2,Win32,50,,,,,,,,,,,,,,,,,,,,,,,463.5906,464.6656,a,1,0.4016,,[],[],[],[],[],[],[],0.4016,1,464.666,465.1637,,,,,,1339,FEM,DIS,150,toalla,el,a,465.1638,465.1644,0.017777778,-0.126666667,0,0,0,,0,184,184,438,1,,,,
,,,,,,fe25aa7f628b34e1d780103d,66a626ef09d4e21e1a8894ec,67371d45c30edb7574758dcf,2024-11-15_11h09.09.566,Tarea de género gramatical,2024.2.2,Win32,50,,,,,,,,,,,,,,,,,,,,,,,465.168,466.2027,l,1,0.3615,,[],[],[],[],[],[],[],0.3615,1,466.2029,466.7011,,,,,,1349,MAS,AGR,150,payaso,el,l,466.7012,466.7019,0.017777778,-0.126666667,0,0,0,,0,185,185,448,1,,,,
,,,,,,fe25aa7f628b34e1d780103d,66a626ef09d4e21e1a8894ec,67371d45c30edb7574758dcf,2024-11-15_11h09.09.566,Tarea de género gramatical,2024.2.2,Win32,50,,,,,,,,,,,,,,,,,,,,,,,466.7054,467.8193,l,1,0.440700001,,[],[],[],[],[],[],[],0.440700001,1,467.8197,468.3184,,,,,,994,MAS,DIS,150,cabo,la,l,468.3228,468.3251,0.017777778,-0.126666667,0,0,0,,0,186,186,93,1,,,,
,,,,,,fe25aa7f628b34e1d780103d,66a626ef09d4e21e1a8894ec,67371d45c30edb7574758dcf,2024-11-15_11h09.09.566,Tarea de género gramatical,2024.2.2,Win32,50,,,,,,,,,,,,,,,,,,,,,,,468.3273,469.3575,l,1,0.361700001,,[],[],[],[],[],[],[],0.361700001,1,469.3577,469.8558,,,,,,1110,MAS,CON,150,baile,,l,469.856,469.8566,0.017777778,-0.126666667,0,0,0,,0,187,187,209,1,,,,
,,,,,,fe25aa7f628b34e1d780103d,66a626ef09d4e21e1a8894ec,67371d45c30edb7574758dcf,2024-11-15_11h09.09.566,Tarea de género gramatical,2024.2.2,Win32,50,,,,,,,,,,,,,,,,,,,,,,,469.8596,470.8941,a,1,0.360699999,,[],[],[],[],[],[],[],0.360699999,1,470.8944,471.3934,,,,,,1179,FEM,CON,150,selva,,a,471.3936,471.3939,0.017777778,-0.126666667,0,0,0,,0,188,188,278,1,,,,
,,,,,,fe25aa7f628b34e1d780103d,66a626ef09d4e21e1a8894ec,67371d45c30edb7574758dcf,2024-11-15_11h09.09.566,Tarea de género gramatical,2024.2.2,Win32,50,,,,,,,,,,,,,,,,,,,,,,,471.3972,472.3516,l,1,0.2806,,[],[],[],[],[],[],[],0.2806,1,472.352,472.8509,,,,,,954,MAS,CON,150,humo,,l,472.8511,472.8517,0.017777778,-0.126666667,0,0,0,,0,189,189,53,1,,,,
,,,,,,fe25aa7f628b34e1d780103d,66a626ef09d4e21e1a8894ec,67371d45c30edb7574758dcf,2024-11-15_11h09.09.566,Tarea de género gramatical,2024.2.2,Win32,50,,,,,,,,,,,,,,,,,,,,,,,472.8551,473.8492,l,1,0.3209,,[],[],[],[],[],[],[],0.3209,1,473.8496,474.3483,,,,,,1145,MAS,AGR,150,turno,el,l,474.3486,474.3491,0.017777778,-0.126666667,0,0,0,,0,190,190,244,1,,,,
,,,,,,fe25aa7f628b34e1d780103d,66a626ef09d4e21e1a8894ec,67371d45c30edb7574758dcf,2024-11-15_11h09.09.566,Tarea de género gramatical,2024.2.2,Win32,50,,,,,,,,,,,,,,,,,,,,,,,474.3527,475.7255,a,1,0.697,,[],[],[],[],[],[],[],0.697,1,475.7257,476.2255,,,,,,1219,FEM,DIS,150,sangre,el,a,476.2297,476.2319,0.017777778,-0.126666667,0,0,0,,0,191,191,318,1,,,,
,,,,,,fe25aa7f628b34e1d780103d,66a626ef09d4e21e1a8894ec,67371d45c30edb7574758dcf,2024-11-15_11h09.09.566,Tarea de género gramatical,2024.2.2,Win32,50,,,,,,,,,,,,,,,,,,,,,,,476.2343,477.3243,a,1,0.4269,,[],[],[],[],[],[],[],0.4269,1,477.3245,477.8227,,,,,,1058,FEM,AGR,150,chica,la,a,477.823,477.8235,0.017777778,-0.126666667,0,0,0,,0,192,192,157,1,,,,
,,,,,,fe25aa7f628b34e1d780103d,66a626ef09d4e21e1a8894ec,67371d45c30edb7574758dcf,2024-11-15_11h09.09.566,Tarea de género gramatical,2024.2.2,Win32,50,,,,,,,,,,,,,,,,,,,,,,,477.8272,479.1404,a,1,0.640299999,,[],[],[],[],[],[],[],0.640299999,1,479.1407,479.6398,,,,,,1129,FEM,DIS,150,celda,el,a,479.6399,479.6405,0.017777778,-0.126666667,0,0,0,,0,193,193,228,1,,,,
,,,,,,fe25aa7f628b34e1d780103d,66a626ef09d4e21e1a8894ec,67371d45c30edb7574758dcf,2024-11-15_11h09.09.566,Tarea de género gramatical,2024.2.2,Win32,50,,,,,,,,,,,,,,,,,,,,,,,479.644,480.7183,a,1,0.4014,,[],[],[],[],[],[],[],0.4014,1,480.7187,481.2172,,,,,,944,FEM,AGR,150,zona,la,a,481.2173,481.2179,0.017777778,-0.126666667,0,0,0,,0,194,194,43,1,,,,
,,,,,,fe25aa7f628b34e1d780103d,66a626ef09d4e21e1a8894ec,67371d45c30edb7574758dcf,2024-11-15_11h09.09.566,Tarea de género gramatical,2024.2.2,Win32,50,,,,,,,,,,,,,,,,,,,,,,,481.2213,482.2364,l,1,0.3414,,[],[],[],[],[],[],[],0.3414,1,482.2367,482.7347,,,,,,1224,MAS,CON,150,cuarto,,l,482.7396,482.742,0.017777778,-0.126666667,0,0,0,,0,195,195,323,1,,,,
,,,,,,fe25aa7f628b34e1d780103d,66a626ef09d4e21e1a8894ec,67371d45c30edb7574758dcf,2024-11-15_11h09.09.566,Tarea de género gramatical,2024.2.2,Win32,50,,,,,,,,,,,,,,,,,,,,,,,482.7446,483.8533,a,1,0.441599998,,[],[],[],[],[],[],[],0.441599998,1,483.8536,484.352,,,,,,1028,FEM,AGR,150,leña,la,a,484.3522,484.3527,0.017777778,-0.126666667,0,0,0,,0,196,196,127,1,,,,
,,,,,,fe25aa7f628b34e1d780103d,66a626ef09d4e21e1a8894ec,67371d45c30edb7574758dcf,2024-11-15_11h09.09.566,Tarea de género gramatical,2024.2.2,Win32,50,,,,,,,,,,,,,,,,,,,,,,,484.3559,485.4104,l,1,0.381,,[],[],[],[],[],[],[],0.381,1,485.4108,485.9089,,,,,,1140,MAS,CON,150,ruido,,l,485.909,485.9093,0.017777778,-0.126666667,0,0,0,,0,197,197,239,1,,,,
,,,,,,fe25aa7f628b34e1d780103d,66a626ef09d4e21e1a8894ec,67371d45c30edb7574758dcf,2024-11-15_11h09.09.566,Tarea de género gramatical,2024.2.2,Win32,50,,,,,,,,,,,,,,,,,,,,,,,485.9114,486.9883,l,1,0.400799999,,[],[],[],[],[],[],[],0.400799999,1,486.9887,487.487,,,,,,1055,MAS,AGR,150,mundo,el,l,487.4872,487.4877,0.017777778,-0.126666667,0,0,0,,0,198,198,154,1,,,,
,,,,,,fe25aa7f628b34e1d780103d,66a626ef09d4e21e1a8894ec,67371d45c30edb7574758dcf,2024-11-15_11h09.09.566,Tarea de género gramatical,2024.2.2,Win32,50,,,,,,,,,,,,,,,,,,,,,,,487.4908,488.5451,a,1,0.380700001,,[],[],[],[],[],[],[],0.380700001,1,488.5454,489.0443,,,,,,1323,FEM,CON,150,poesía,,a,489.0444,489.045,0.017777778,-0.126666667,0,0,0,,0,199,199,422,1,,,,
,,,,,,fe25aa7f628b34e1d780103d,66a626ef09d4e21e1a8894ec,67371d45c30edb7574758dcf,2024-11-15_11h09.09.566,Tarea de género gramatical,2024.2.2,Win32,50,,,,,,,,,,,,,,,,,,,,,,,489.0482,490.0826,a,1,0.355900002,,[],[],[],[],[],[],[],0.355900002,1,490.0828,490.5818,,,,,,1017,FEM,CON,150,raya,,a,490.5866,490.5888,0.017777778,-0.126666667,0,0,0,,0,200,200,116,1,,,,
,,,,,,fe25aa7f628b34e1d780103d,66a626ef09d4e21e1a8894ec,67371d45c30edb7574758dcf,2024-11-15_11h09.09.566,Tarea de género gramatical,2024.2.2,Win32,50,,,,,,,,,,,,,,,,,,,,,,,490.591,491.7203,a,1,0.461300001,,[],[],[],[],[],[],[],0.461300001,1,491.7206,492.219,,,,,,1221,FEM,CON,150,comida,,a,492.2192,492.2196,0.017777778,-0.126666667,0,0,0,,0,201,201,320,1,,,,
,,,,,,fe25aa7f628b34e1d780103d,66a626ef09d4e21e1a8894ec,67371d45c30edb7574758dcf,2024-11-15_11h09.09.566,Tarea de género gramatical,2024.2.2,Win32,50,,,,,,,,,,,,,,,,,,,,,,,492.2234,493.1983,l,1,0.301799999,,[],[],[],[],[],[],[],0.301799999,1,493.1985,493.6966,,,,,,1139,MAS,AGR,150,reloj,el,l,493.6968,493.6972,0.017777778,-0.126666667,0,0,0,,0,202,202,238,1,,,,
,,,,,,fe25aa7f628b34e1d780103d,66a626ef09d4e21e1a8894ec,67371d45c30edb7574758dcf,2024-11-15_11h09.09.566,Tarea de género gramatical,2024.2.2,Win32,50,,,,,,,,,,,,,,,,,,,,,,,493.7007,494.7149,a,1,0.341,,[],[],[],[],[],[],[],0.341,1,494.7153,495.2143,,,,,,1196,FEM,AGR,150,feria,la,a,495.2144,495.2149,0.017777778,-0.126666667,0,0,0,,0,203,203,295,1,,,,
,,,,,,fe25aa7f628b34e1d780103d,66a626ef09d4e21e1a8894ec,67371d45c30edb7574758dcf,2024-11-15_11h09.09.566,Tarea de género gramatical,2024.2.2,Win32,50,,,,,,,,,,,,,,,,,,,,,,,495.2181,496.2526,l,1,0.360900002,,[],[],[],[],[],[],[],0.360900002,1,496.2528,496.7516,,,,,,1030,MAS,DIS,150,yate,la,l,496.7564,496.759,0.017777778,-0.126666667,0,0,0,,0,204,204,129,1,,,,
,,,,,,fe25aa7f628b34e1d780103d,66a626ef09d4e21e1a8894ec,67371d45c30edb7574758dcf,2024-11-15_11h09.09.566,Tarea de género gramatical,2024.2.2,Win32,50,,,,,,,,,,,,,,,,,,,,,,,496.7614,497.7903,a,1,0.3616,,[],[],[],[],[],[],[],0.3616,1,497.7906,498.2891,,,,,,986,FEM,AGR,150,cruz,la,a,498.2892,498.2898,0.017777778,-0.126666667,0,0,0,,0,205,205,85,1,,,,
,,,,,,fe25aa7f628b34e1d780103d,66a626ef09d4e21e1a8894ec,67371d45c30edb7574758dcf,2024-11-15_11h09.09.566,Tarea de género gramatical,2024.2.2,Win32,50,,,,,,,,,,,,,,,,,,,,,,,498.2934,499.3074,a,1,0.3395,,[],[],[],[],[],[],[],0.3395,1,499.3076,499.8065,,,,,,1136,FEM,AGR,150,deuda,la,a,499.8067,499.8072,0.017777778,-0.126666667,0,0,0,,0,206,206,235,1,,,,
,,,,,,fe25aa7f628b34e1d780103d,66a626ef09d4e21e1a8894ec,67371d45c30edb7574758dcf,2024-11-15_11h09.09.566,Tarea de género gramatical,2024.2.2,Win32,50,,,,,,,,,,,,,,,,,,,,,,,499.8104,500.8042,l,1,0.320200001,,[],[],[],[],[],[],[],0.320200001,1,500.8043,501.3041,,,,,,1284,MAS,CON,150,pedazo,,l,501.3042,501.3048,0.017777778,-0.126666667,0,0,0,,0,207,207,383,1,,,,
,,,,,,fe25aa7f628b34e1d780103d,66a626ef09d4e21e1a8894ec,67371d45c30edb7574758dcf,2024-11-15_11h09.09.566,Tarea de género gramatical,2024.2.2,Win32,50,,,,,,,,,,,,,,,,,,,,,,,501.3082,502.2833,a,1,0.301699999,,[],[],[],[],[],[],[],0.301699999,1,502.2836,502.7817,,,,,,962,FEM,AGR,150,sopa,la,a,502.7819,502.7824,0.017777778,-0.126666667,0,0,0,,0,208,208,61,1,,,,
,,,,,,fe25aa7f628b34e1d780103d,66a626ef09d4e21e1a8894ec,67371d45c30edb7574758dcf,2024-11-15_11h09.09.566,Tarea de género gramatical,2024.2.2,Win32,50,,,,,,,,,,,,,,,,,,,,,,,502.786,503.8604,l,1,0.400900002,,[],[],[],[],[],[],[],0.400900002,1,503.8607,504.3593,,,,,,1264,MAS,DIS,150,viento,la,l,504.3645,504.3668,0.017777778,-0.126666667,0,0,0,,0,209,209,363,1,,,,
,,,,,,fe25aa7f628b34e1d780103d,66a626ef09d4e21e1a8894ec,67371d45c30edb7574758dcf,2024-11-15_11h09.09.566,Tarea de género gramatical,2024.2.2,Win32,50,,,,,,,,,,,,,,,,,,,,,,,504.3696,505.4181,l,1,0.363700001,,[],[],[],[],[],[],[],0.363700001,1,505.4184,505.9165,,,,,,1319,MAS,AGR,150,cuento,el,l,505.9167,505.9172,0.017777778,-0.126666667,0,0,0,,0,210,210,418,1,,,,
,,,,,,fe25aa7f628b34e1d780103d,66a626ef09d4e21e1a8894ec,67371d45c30edb7574758dcf,2024-11-15_11h09.09.566,Tarea de género gramatical,2024.2.2,Win32,50,,,,,,,,,,,,,,,,,,,,,,,505.9208,506.9554,a,1,0.361,,[],[],[],[],[],[],[],0.361,1,506.9556,507.454,,,,,,925,FEM,DIS,150,nave,el,a,507.4541,507.4547,0.017777778,-0.126666667,0,0,0,,0,211,211,24,1,,,,
,,,,,,fe25aa7f628b34e1d780103d,66a626ef09d4e21e1a8894ec,67371d45c30edb7574758dcf,2024-11-15_11h09.09.566,Tarea de género gramatical,2024.2.2,Win32,50,,,,,,,,,,,,,,,,,,,,,,,507.458,508.4526,l,1,0.327300001,,[],[],[],[],[],[],[],0.327300001,1,508.4528,508.9507,,,,,,1223,MAS,AGR,150,marido,el,l,508.9507,508.951,0.017777778,-0.126666667,0,0,0,,0,212,212,322,1,,,,
,,,,,,fe25aa7f628b34e1d780103d,66a626ef09d4e21e1a8894ec,67371d45c30edb7574758dcf,2024-11-15_11h09.09.566,Tarea de género gramatical,2024.2.2,Win32,50,,,,,,,,,,,,,,,,,,,,,,,508.9527,510.0288,a,0,0.398299999,,[],[],[],[],[],[],[],0.398299999,0,510.0299,510.5288,,,,,,1247,MAS,AGR,150,cuello,el,l,510.533,510.5352,0.017777778,-0.126666667,0,0,0,,0,213,213,346,1,,,,
,,,,,,fe25aa7f628b34e1d780103d,66a626ef09d4e21e1a8894ec,67371d45c30edb7574758dcf,2024-11-15_11h09.09.566,Tarea de género gramatical,2024.2.2,Win32,50,,,,,,,,,,,,,,,,,,,,,,,510.5374,511.6671,a,1,0.460599998,,[],[],[],[],[],[],[],0.460599998,1,511.6696,512.1665,,,,,,1125,FEM,CON,150,pieza,,a,512.1668,512.1676,0.017777778,-0.126666667,0,0,0,,0,214,214,224,1,,,,
,,,,,,fe25aa7f628b34e1d780103d,66a626ef09d4e21e1a8894ec,67371d45c30edb7574758dcf,2024-11-15_11h09.09.566,Tarea de género gramatical,2024.2.2,Win32,50,,,,,,,,,,,,,,,,,,,,,,,512.1711,513.1448,l,1,0.300800001,,[],[],[],[],[],[],[],0.300800001,1,513.145,513.6438,,,,,,1230,MAS,CON,150,estado,,l,513.6439,513.6445,0.017777778,-0.126666667,0,0,0,,0,215,215,329,1,,,,
,,,,,,fe25aa7f628b34e1d780103d,66a626ef09d4e21e1a8894ec,67371d45c30edb7574758dcf,2024-11-15_11h09.09.566,Tarea de género gramatical,2024.2.2,Win32,50,,,,,,,,,,,,,,,,,,,,,,,513.6481,514.6626,a,1,0.3415,,[],[],[],[],[],[],[],0.3415,1,514.6631,515.1615,,,,,,1178,FEM,AGR,150,presa,la,a,515.1616,515.1622,0.017777778,-0.126666667,0,0,0,,0,216,216,277,1,,,,
,,,,,,fe25aa7f628b34e1d780103d,66a626ef09d4e21e1a8894ec,67371d45c30edb7574758dcf,2024-11-15_11h09.09.566,Tarea de género gramatical,2024.2.2,Win32,50,,,,,,,,,,,,,,,,,,,,,,,515.1654,516.2004,l,1,0.3616,,[],[],[],[],[],[],[],0.3616,1,516.2007,516.6988,,,,,,928,MAS,DIS,150,club,la,l,516.6989,516.6994,0.017777778,-0.126666667,0,0,0,,0,217,217,27,1,,,,
,,,,,,fe25aa7f628b34e1d780103d,66a626ef09d4e21e1a8894ec,67371d45c30edb7574758dcf,2024-11-15_11h09.09.566,Tarea de género gramatical,2024.2.2,Win32,50,,,,,,,,,,,,,,,,,,,,,,,516.7029,517.7182,l,1,0.3421,,[],[],[],[],[],[],[],0.3421,1,517.7186,518.2164,,,,,,1296,MAS,CON,150,tesoro,,l,518.221,518.2231,0.017777778,-0.126666667,0,0,0,,0,218,218,395,1,,,,
,,,,,,fe25aa7f628b34e1d780103d,66a626ef09d4e21e1a8894ec,67371d45c30edb7574758dcf,2024-11-15_11h09.09.566,Tarea de género gramatical,2024.2.2,Win32,50,,,,,,,,,,,,,,,,,,,,,,,518.2254,519.2351,a,1,0.340799999,,[],[],[],[],[],[],[],0.340799999,1,519.2354,519.7337,,,,,,1130,FEM,AGR,150,regla,la,a,519.7338,519.7344,0.017777778,-0.126666667,0,0,0,,0,219,219,229,1,,,,
,,,,,,fe25aa7f628b34e1d780103d,66a626ef09d4e21e1a8894ec,67371d45c30edb7574758dcf,2024-11-15_11h09.09.566,Tarea de género gramatical,2024.2.2,Win32,50,,,,,,,,,,,,,,,,,,,,,,,519.7383,520.6923,l,1,0.281700001,,[],[],[],[],[],[],[],0.281700001,1,520.6927,521.1916,,,,,,1336,MAS,DIS,150,objeto,la,l,521.1918,521.1924,0.017777778,-0.126666667,0,0,0,,0,220,220,435,1,,,,
,,,,,,fe25aa7f628b34e1d780103d,66a626ef09d4e21e1a8894ec,67371d45c30edb7574758dcf,2024-11-15_11h09.09.566,Tarea de género gramatical,2024.2.2,Win32,50,,,,,,,,,,,,,,,,,,,,,,,521.1965,522.2296,a,1,0.360799999,,[],[],[],[],[],[],[],0.360799999,1,522.2299,522.7288,,,,,,1195,FEM,DIS,150,grasa,el,a,522.7289,522.7295,0.017777778,-0.126666667,0,0,0,,0,221,221,294,1,,,,
,,,,,,fe25aa7f628b34e1d780103d,66a626ef09d4e21e1a8894ec,67371d45c30edb7574758dcf,2024-11-15_11h09.09.566,Tarea de género gramatical,2024.2.2,Win32,50,,,,,,,,,,,,,,,,,,,,,,,522.7329,523.6682,l,1,0.261599998,,[],[],[],[],[],[],[],0.261599998,1,523.6685,524.1664,,,,,,1086,MAS,CON,150,error,,l,524.1712,524.1735,0.017777778,-0.126666667,0,0,0,,0,222,222,185,1,,,,
,,,,,,fe25aa7f628b34e1d780103d,66a626ef09d4e21e1a8894ec,67371d45c30edb7574758dcf,2024-11-15_11h09.09.566,Tarea de género gramatical,2024.2.2,Win32,50,,,,,,,,,,,,,,,,,,,,,,,524.1756,525.2048,a,1,0.360799999,,[],[],[],[],[],[],[],0.360799999,1,525.205,525.7038,,,,,,1077,FEM,CON,150,broma,,a,525.704,525.7046,0.017777778,-0.126666667,0,0,0,,0,223,223,176,1,,,,
,,,,,,fe25aa7f628b34e1d780103d,66a626ef09d4e21e1a8894ec,67371d45c30edb7574758dcf,2024-11-15_11h09.09.566,Tarea de género gramatical,2024.2.2,Win32,50,,,,,,,,,,,,,,,,,,,,,,,525.708,526.7026,a,1,0.321300001,,[],[],[],[],[],[],[],0.321300001,1,526.7029,527.2016,,,,,,921,FEM,CON,150,boca,,a,527.2018,527.2023,0.017777778,-0.126666667,0,0,0,,0,224,224,20,1,,,,
,,,,,,fe25aa7f628b34e1d780103d,66a626ef09d4e21e1a8894ec,67371d45c30edb7574758dcf,2024-11-15_11h09.09.566,Tarea de género gramatical,2024.2.2,Win32,50,,,,,,,,,,,,,,,,,,,,,,,527.2056,528.3201,l,1,0.441200001,,[],[],[],[],[],[],[],0.441200001,1,528.3204,528.8189,,,,,,934,MAS,DIS,150,gato,la,l,528.8191,528.8196,0.017777778,-0.126666667,0,0,0,,0,225,225,33,1,,,,
,,,,,,fe25aa7f628b34e1d780103d,66a626ef09d4e21e1a8894ec,67371d45c30edb7574758dcf,2024-11-15_11h09.09.566,Tarea de género gramatical,2024.2.2,Win32,50,,,,,,,,,,,,,,,,,,,,,,,528.8228,529.7976,a,1,0.3035,,[],[],[],[],[],[],[],0.3035,1,529.7979,530.2953,,,,,,1191,FEM,CON,150,aguja,,a,530.2954,530.2956,0.017777778,-0.126666667,0,0,0,,0,226,226,290,1,,,,
,,,,,,fe25aa7f628b34e1d780103d,66a626ef09d4e21e1a8894ec,67371d45c30edb7574758dcf,2024-11-15_11h09.09.566,Tarea de género gramatical,2024.2.2,Win32,50,,,,,,,,,,,,,,,,,,,,,,,530.2968,531.3355,a,1,0.361700001,,[],[],[],[],[],[],[],0.361700001,1,531.3359,531.8339,,,,,,915,FEM,CON,150,cama,,a,531.8387,531.8409,0.017777778,-0.126666667,0,0,0,,0,227,227,14,1,,,,
,,,,,,fe25aa7f628b34e1d780103d,66a626ef09d4e21e1a8894ec,67371d45c30edb7574758dcf,2024-11-15_11h09.09.566,Tarea de género gramatical,2024.2.2,Win32,50,,,,,,,,,,,,,,,,,,,,,,,531.8434,532.8528,l,0,0.3411,,[],[],[],[],[],[],[],0.3411,0,532.8557,533.3513,,,,,,1039,FEM,DIS,150,pipa,el,a,533.3515,533.3522,0.017777778,-0.126666667,0,0,0,,0,228,228,138,1,,,,
,,,,,,fe25aa7f628b34e1d780103d,66a626ef09d4e21e1a8894ec,67371d45c30edb7574758dcf,2024-11-15_11h09.09.566,Tarea de género gramatical,2024.2.2,Win32,50,,,,,,,,,,,,,,,,,,,,,,,533.3555,534.5102,a,1,0.481199999,,[],[],[],[],[],[],[],0.481199999,1,534.5127,535.0086,,,,,,998,FEM,AGR,150,fuga,la,a,535.0088,535.0093,0.017777778,-0.126666667,0,0,0,,0,229,229,97,1,,,,
,,,,,,fe25aa7f628b34e1d780103d,66a626ef09d4e21e1a8894ec,67371d45c30edb7574758dcf,2024-11-15_11h09.09.566,Tarea de género gramatical,2024.2.2,Win32,50,,,,,,,,,,,,,,,,,,,,,,,535.0127,536.0478,l,1,0.361699999,,[],[],[],[],[],[],[],0.361699999,1,536.048,536.5462,,,,,,1270,MAS,DIS,150,seguro,la,l,536.5464,536.5469,0.017777778,-0.126666667,0,0,0,,0,230,230,369,1,,,,
,,,,,,fe25aa7f628b34e1d780103d,66a626ef09d4e21e1a8894ec,67371d45c30edb7574758dcf,2024-11-15_11h09.09.566,Tarea de género gramatical,2024.2.2,Win32,50,,,,,,,,,,,,,,,,,,,,,,,536.5503,537.605,a,1,0.3814,,[],[],[],[],[],[],[],0.3814,1,537.6054,538.1035,,,,,,1275,FEM,CON,150,cadena,,a,538.1085,538.111,0.017777778,-0.126666667,0,0,0,,0,231,231,374,1,,,,
,,,,,,fe25aa7f628b34e1d780103d,66a626ef09d4e21e1a8894ec,67371d45c30edb7574758dcf,2024-11-15_11h09.09.566,Tarea de género gramatical,2024.2.2,Win32,50,,,,,,,,,,,,,,,,,,,,,,,538.1137,539.3028,a,1,0.501700001,,[],[],[],[],[],[],[],0.501700001,1,539.3031,539.8006,,,,,,1203,FEM,CON,150,maldad,,a,539.8008,539.8013,0.017777778,-0.126666667,0,0,0,,0,232,232,302,1,,,,
,,,,,,fe25aa7f628b34e1d780103d,66a626ef09d4e21e1a8894ec,67371d45c30edb7574758dcf,2024-11-15_11h09.09.566,Tarea de género gramatical,2024.2.2,Win32,50,,,,,,,,,,,,,,,,,,,,,,,539.8047,540.7998,l,1,0.3216,,[],[],[],[],[],[],[],0.3216,1,540.8001,541.298,,,,,,1276,MAS,DIS,150,efecto,la,l,541.2982,541.2988,0.017777778,-0.126666667,0,0,0,,0,233,233,375,1,,,,
,,,,,,fe25aa7f628b34e1d780103d,66a626ef09d4e21e1a8894ec,67371d45c30edb7574758dcf,2024-11-15_11h09.09.566,Tarea de género gramatical,2024.2.2,Win32,50,,,,,,,,,,,,,,,,,,,,,,,541.302,542.2572,a,0,0.281800001,,[],[],[],[],[],[],[],0.281800001,0,542.2601,542.7558,,,,,,1158,MAS,CON,150,polvo,,l,542.756,542.7565,0.017777778,-0.126666667,0,0,0,,0,234,234,257,1,,,,
,,,,,,fe25aa7f628b34e1d780103d,66a626ef09d4e21e1a8894ec,67371d45c30edb7574758dcf,2024-11-15_11h09.09.566,Tarea de género gramatical,2024.2.2,Win32,50,,,,,,,,,,,,,,,,,,,,,,,542.7606,544.115,a,1,0.6805,,[],[],[],[],[],[],[],0.6805,1,544.1181,544.613,,,,,,1063,FEM,DIS,150,calle,el,a,544.6131,544.6136,0.017777778,-0.126666667,0,0,0,,0,235,235,162,1,,,,
,,,,,,fe25aa7f628b34e1d780103d,66a626ef09d4e21e1a8894ec,67371d45c30edb7574758dcf,2024-11-15_11h09.09.566,Tarea de género gramatical,2024.2.2,Win32,50,,,,,,,,,,,,,,,,,,,,,,,544.6169,545.6517,a,1,0.361700001,,[],[],[],[],[],[],[],0.361700001,1,545.6521,546.1493,,,,,,1003,FEM,DIS,150,fama,el,a,546.1514,546.1525,0.017777778,-0.126666667,0,0,0,,0,236,236,102,1,,,,
,,,,,,fe25aa7f628b34e1d780103d,66a626ef09d4e21e1a8894ec,67371d45c30edb7574758dcf,2024-11-15_11h09.09.566,Tarea de género gramatical,2024.2.2,Win32,50,,,,,,,,,,,,,,,,,,,,,,,546.1535,547.1885,a,1,0.359200001,,[],[],[],[],[],[],[],0.359200001,1,547.1888,547.6877,,,,,,1184,FEM,AGR,150,fruta,la,a,547.6879,547.6885,0.017777778,-0.126666667,0,0,0,,0,237,237,283,1,,,,
,,,,,,fe25aa7f628b34e1d780103d,66a626ef09d4e21e1a8894ec,67371d45c30edb7574758dcf,2024-11-15_11h09.09.566,Tarea de género gramatical,2024.2.2,Win32,50,,,,,,,,,,,,,,,,,,,,,,,547.6918,548.7064,l,1,0.341699999,,[],[],[],[],[],[],[],0.341699999,1,548.7067,549.2052,,,,,,910,MAS,DIS,150,niño,la,l,549.2053,549.206,0.017777778,-0.126666667,0,0,0,,0,238,238,9,1,,,,
,,,,,,fe25aa7f628b34e1d780103d,66a626ef09d4e21e1a8894ec,67371d45c30edb7574758dcf,2024-11-15_11h09.09.566,Tarea de género gramatical,2024.2.2,Win32,50,,,,,,,,,,,,,,,,,,,,,,,549.2093,550.2444,a,1,0.3616,,[],[],[],[],[],[],[],0.3616,1,550.2446,550.743,,,,,,1328,FEM,AGR,150,jugada,la,a,550.7433,550.7439,0.017777778,-0.126666667,0,0,0,,0,239,239,427,1,,,,
,,,,,,fe25aa7f628b34e1d780103d,66a626ef09d4e21e1a8894ec,67371d45c30edb7574758dcf,2024-11-15_11h09.09.566,Tarea de género gramatical,2024.2.2,Win32,50,,,,,,,,,,,,,,,,,,,,,,,550.7475,551.7812,l,1,0.360199999,,[],[],[],[],[],[],[],0.360199999,1,551.7817,552.2801,,,,,,1181,MAS,AGR,150,actor,el,l,552.2848,552.287,0.017777778,-0.126666667,0,0,0,,0,240,240,280,1,,,,
,,,,,,fe25aa7f628b34e1d780103d,66a626ef09d4e21e1a8894ec,67371d45c30edb7574758dcf,2024-11-15_11h09.09.566,Tarea de género gramatical,2024.2.2,Win32,50,,,,,,,,,,,,,,,,,,,,,,,552.2893,553.2994,l,1,0.3419,,[],[],[],[],[],[],[],0.3419,1,553.2996,553.7978,,,,,,1272,MAS,CON,150,delito,,l,553.798,553.7985,0.017777778,-0.126666667,0,0,0,,0,241,241,371,1,,,,
,,,,,,fe25aa7f628b34e1d780103d,66a626ef09d4e21e1a8894ec,67371d45c30edb7574758dcf,2024-11-15_11h09.09.566,Tarea de género gramatical,2024.2.2,Win32,50,,,,,,,,,,,,,,,,,,,,,,,553.8018,554.8361,l,1,0.361,,[],[],[],[],[],[],[],0.361,1,554.8366,555.3351,,,,,,978,MAS,CON,150,oído,,l,555.3352,555.3357,0.017777778,-0.126666667,0,0,0,,0,242,242,77,1,,,,
,,,,,,fe25aa7f628b34e1d780103d,66a626ef09d4e21e1a8894ec,67371d45c30edb7574758dcf,2024-11-15_11h09.09.566,Tarea de género gramatical,2024.2.2,Win32,50,,,,,,,,,,,,,,,,,,,,,,,555.3389,556.3741,a,1,0.361300001,,[],[],[],[],[],[],[],0.361300001,1,556.3746,556.8726,,,,,,987,FEM,CON,150,risa,,a,556.8728,556.8733,0.017777778,-0.126666667,0,0,0,,0,243,243,86,1,,,,
,,,,,,fe25aa7f628b34e1d780103d,66a626ef09d4e21e1a8894ec,67371d45c30edb7574758dcf,2024-11-15_11h09.09.566,Tarea de género gramatical,2024.2.2,Win32,50,,,,,,,,,,,,,,,,,,,,,,,556.8766,558.1116,a,1,0.5611,,[],[],[],[],[],[],[],0.5611,1,558.1119,558.6097,,,,,,938,FEM,AGR,150,obra,la,a,558.6098,558.6104,0.017777778,-0.126666667,0,0,0,,0,244,244,37,1,,,,
,,,,,,fe25aa7f628b34e1d780103d,66a626ef09d4e21e1a8894ec,67371d45c30edb7574758dcf,2024-11-15_11h09.09.566,Tarea de género gramatical,2024.2.2,Win32,50,,,,,,,,,,,,,,,,,,,,,,,558.6138,559.689,l,1,0.4016,,[],[],[],[],[],[],[],0.4016,1,559.6892,560.1871,,,,,,1211,MAS,AGR,150,camino,el,l,560.192,560.1944,0.017777778,-0.126666667,0,0,0,,0,245,245,310,1,,,,
,,,,,,fe25aa7f628b34e1d780103d,66a626ef09d4e21e1a8894ec,67371d45c30edb7574758dcf,2024-11-15_11h09.09.566,Tarea de género gramatical,2024.2.2,Win32,50,,,,,,,,,,,,,,,,,,,,,,,560.1968,561.3454,l,0,0.462,,[],[],[],[],[],[],[],0.462,0,561.3481,561.8444,,,,,,1250,FEM,AGR,150,imagen,la,a,561.8445,561.8451,0.017777778,-0.126666667,0,0,0,,0,246,246,349,1,,,,
,,,,,,fe25aa7f628b34e1d780103d,66a626ef09d4e21e1a8894ec,67371d45c30edb7574758dcf,2024-11-15_11h09.09.566,Tarea de género gramatical,2024.2.2,Win32,50,,,,,,,,,,,,,,,,,,,,,,,561.8482,563.1025,a,1,0.580700001,,[],[],[],[],[],[],[],0.580700001,1,563.1054,563.6015,,,,,,1173,FEM,CON,150,tarta,,a,563.6016,563.6023,0.017777778,-0.126666667,0,0,0,,0,247,247,272,1,,,,
,,,,,,fe25aa7f628b34e1d780103d,66a626ef09d4e21e1a8894ec,67371d45c30edb7574758dcf,2024-11-15_11h09.09.566,Tarea de género gramatical,2024.2.2,Win32,50,,,,,,,,,,,,,,,,,,,,,,,563.6056,564.7004,l,1,0.4215,,[],[],[],[],[],[],[],0.4215,1,564.7007,565.1988,,,,,,970,MAS,DIS,150,palo,la,l,565.199,565.1996,0.017777778,-0.126666667,0,0,0,,0,248,248,69,1,,,,
,,,,,,fe25aa7f628b34e1d780103d,66a626ef09d4e21e1a8894ec,67371d45c30edb7574758dcf,2024-11-15_11h09.09.566,Tarea de género gramatical,2024.2.2,Win32,50,,,,,,,,,,,,,,,,,,,,,,,565.2029,566.2578,l,1,0.3815,,[],[],[],[],[],[],[],0.3815,1,566.258,566.7562,,,,,,990,MAS,CON,150,león,,l,566.7613,566.7635,0.017777778,-0.126666667,0,0,0,,0,249,249,89,1,,,,
,,,,,,fe25aa7f628b34e1d780103d,66a626ef09d4e21e1a8894ec,67371d45c30edb7574758dcf,2024-11-15_11h09.09.566,Tarea de género gramatical,2024.2.2,Win32,50,,,,,,,,,,,,,,,,,,,,,,,566.7662,567.9546,l,1,0.520800001,,[],[],[],[],[],[],[],0.520800001,1,567.9549,568.4535,,,,,,1073,MAS,AGR,150,libro,el,l,568.4537,568.4542,0.017777778,-0.126666667,0,0,0,,0,250,250,172,1,,,,
,,,,,,fe25aa7f628b34e1d780103d,66a626ef09d4e21e1a8894ec,67371d45c30edb7574758dcf,2024-11-15_11h09.09.566,Tarea de género gramatical,2024.2.2,Win32,50,,,,,,,,,,,,,,,,,,,,,,,568.4575,569.6925,a,1,0.5625,,[],[],[],[],[],[],[],0.5625,1,569.6927,570.1907,,,,,,955,FEM,DIS,150,taza,el,a,570.1908,570.1914,0.017777778,-0.126666667,0,0,0,,0,251,251,54,1,,,,
,,,,,,fe25aa7f628b34e1d780103d,66a626ef09d4e21e1a8894ec,67371d45c30edb7574758dcf,2024-11-15_11h09.09.566,Tarea de género gramatical,2024.2.2,Win32,50,,,,,,,,,,,,,,,,,,,,,,,570.1949,571.2494,l,1,0.3809,,[],[],[],[],[],[],[],0.3809,1,571.2496,571.748,,,,,,1007,MAS,AGR,150,cubo,el,l,571.7482,571.7487,0.017777778,-0.126666667,0,0,0,,0,252,252,106,1,,,,
,,,,,,fe25aa7f628b34e1d780103d,66a626ef09d4e21e1a8894ec,67371d45c30edb7574758dcf,2024-11-15_11h09.09.566,Tarea de género gramatical,2024.2.2,Win32,50,,,,,,,,,,,,,,,,,,,,,,,571.752,572.8073,a,1,0.3814,,[],[],[],[],[],[],[],0.3814,1,572.8076,573.3055,,,,,,951,FEM,CON,150,bala,,a,573.3057,573.3062,0.017777778,-0.126666667,0,0,0,,0,253,253,50,1,,,,
,,,,,,fe25aa7f628b34e1d780103d,66a626ef09d4e21e1a8894ec,67371d45c30edb7574758dcf,2024-11-15_11h09.09.566,Tarea de género gramatical,2024.2.2,Win32,50,,,,,,,,,,,,,,,,,,,,,,,573.3096,574.3254,a,1,0.3444,,[],[],[],[],[],[],[],0.3444,1,574.3258,574.823,,,,,,1040,FEM,AGR,150,mula,la,a,574.8277,574.8302,0.017777778,-0.126666667,0,0,0,,0,254,254,139,1,,,,
