counterbalancing_condition,counterbalancing_condition_full,consent_prescreening.block_1/declare_consent,consent_prescreening.block_1/age_years,consent_prescreening.block_1/gender,consent_prescreening.block_1/language_disorder,consent_prescreening.block_1/first_language,PROLIFIC_PID,STUDY_ID,SESSION_ID,date,expName,psychopyVersion,OS,frameRate,check_prescreening_answers.started,check_prescreening_answers.stopped,Instructions.started,Instructions.stopped,instr_done_keyboard.keys,instr_done_keyboard.rt,instr_done_keyboard.duration,instr_done_touch.x,instr_done_touch.y,instr_done_touch.leftButton,instr_done_touch.midButton,instr_done_touch.rightButton,instruction_pages.thisRepN,instruction_pages.thisTrialN,instruction_pages.thisN,instruction_pages.thisIndex,instruction_pages.ran,pageN,phase,instruct_text,has_image,instruct_image,presentTrial.started,presentTrial.stopped,response.keys,response.corr,response.rt,response.duration,rt,corr,feedback.started,feedback.stopped,Break.started,Break.stopped,break_done_touch.x,break_done_touch.y,break_done_touch.leftButton,break_done_touch.midButton,break_done_touch.rightButton,break_done_keyboard.keys,experiment_trials.thisRepN,experiment_trials.thisTrialN,experiment_trials.thisN,experiment_trials.thisIndex,experiment_trials.ran,TrialID,StimulusType,Condition,PrimeDuration,IsAnimal,Prime,Flanker,letters,break_done_keyboard.rt,break_done_keyboard.duration,End.started,End.stopped
1,7,"[""over_18"",""comfortable"",""read_info"",""consent_given""]",40,M,"[""none""]","[""spanish""]",2c0a0e05575eb676ad08be69,67d30250bc6dd184d4aaad81,67d7f68faa87c890fd7bb651,2025-03-17_04h17.09.330,Tarea de clasificación semántica,2024.2.5,Linux x86_64,59.88023952,,,,,,,,,,,,,,,,,,,,,,,,,,,,,,,,,,,,,,,,,,,,,,,,,,,,,,,,,
,,,,,,,2c0a0e05575eb676ad08be69,67d30250bc6dd184d4aaad81,67d7f68faa87c890fd7bb651,2025-03-17_04h17.09.330,Tarea de clasificación semántica,2024.2.5,Linux x86_64,59.88023952,30.5109,30.5113,,,,,,,,,,,,,,,,,,,,,,,,,,,,,,,,,,,,,,,,,,,,,,,,,,,,,,,
,,,,,,,2c0a0e05575eb676ad08be69,67d30250bc6dd184d4aaad81,67d7f68faa87c890fd7bb651,2025-03-17_04h17.09.330,Tarea de clasificación semántica,2024.2.5,Linux x86_64,59.88023952,,,30.5832,42.1055,space,11.4423,,-0.08203125,-0.350260417,0,0,0,0,0,0,0,1,1,instructions,"INSTRUCCIONES
Va a realizar una prueba de clasificación de palabras. Desde comienzo de la prueba siempre mire al centro de la pantalla. Al cabo de un momento, aparecerán palabras. La tarea consiste en determinar si la palabra del centro (siempre será un sustantivo) se refiere un animal (no humano).

Pulse la tecla ESPACIO para continuar.",0,keyboardresponseNA.png,,,,,,,,,,,,,,,,,,,,,,,,,,,,,,,,,,,
,,,,,,,2c0a0e05575eb676ad08be69,67d30250bc6dd184d4aaad81,67d7f68faa87c890fd7bb651,2025-03-17_04h17.09.330,Tarea de clasificación semántica,2024.2.5,Linux x86_64,59.88023952,,,42.1111,46.6469,space,4.3333,,-0.08203125,-0.350260417,0,0,0,0,1,1,1,1,2,instructions,"En el teclado de su dispositivo, pulse la tecla ""L"" para las palabras que se refieren a animales (por ejemplo: ""buey"") y la tecla ""S"" para las palabras que no se refieren a animales (por ejemplo: ""vecino"").

Pulse la tecla ESPACIO para continuar.",1,keyboardresponseNA.png,,,,,,,,,,,,,,,,,,,,,,,,,,,,,,,,,,,
,,,,,,,2c0a0e05575eb676ad08be69,67d30250bc6dd184d4aaad81,67d7f68faa87c890fd7bb651,2025-03-17_04h17.09.330,Tarea de clasificación semántica,2024.2.5,Linux x86_64,59.88023952,,,46.6545,56.1706,space,9.497,,-0.08203125,-0.350260417,0,0,0,0,2,2,2,1,3,instructions,"Es muy importante que responda con la mayor rapidez y precisión posibles, ya que cada cadena de letras sólo estará en pantalla durante un instante. Si no responde en ese tiempo, aparecerá el mensaje ""Muy lento"" y el experimento pasará a la siguiente palabra. Los primeros 15 intentos serán de práctica y habrá dos descansos durante la prueba.
Pulse la tecla ESPACIO para iniciar la parte de práctica.",0,keyboardresponseNA.png,,,,,,,,,,,,,,,,,,,,,,,,,,,,,,,,,,,
,,,,,,,2c0a0e05575eb676ad08be69,67d30250bc6dd184d4aaad81,67d7f68faa87c890fd7bb651,2025-03-17_04h17.09.330,Tarea de clasificación semántica,2024.2.5,Linux x86_64,59.88023952,,,90.9288,99.9594,space,9.0128,,-0.08203125,-0.350260417,0,0,0,,,,,,,,,,,100.1639,101.5164,s,1,0.6799,,0.6799,1,101.5166,102.0146,102.0155,102.0217,-0.08203125,-0.350260417,0,0,0,,0,0,0,107,1,108,FEM,AGR,150,0,celda,la,5,,,,
,,,,,,,2c0a0e05575eb676ad08be69,67d30250bc6dd184d4aaad81,67d7f68faa87c890fd7bb651,2025-03-17_04h17.09.330,Tarea de clasificación semántica,2024.2.5,Linux x86_64,59.88023952,,,,,,,,,,,,,,,,,,,,,,,102.0242,103.0833,l,1,0.3865,,0.3865,1,103.0835,103.5854,103.5855,103.5858,-0.08203125,-0.350260417,0,0,0,,0,1,1,551,1,552,MAS,AGR,150,1,búho,el,4,,,,
,,,,,,,2c0a0e05575eb676ad08be69,67d30250bc6dd184d4aaad81,67d7f68faa87c890fd7bb651,2025-03-17_04h17.09.330,Tarea de clasificación semántica,2024.2.5,Linux x86_64,59.88023952,,,,,,,,,,,,,,,,,,,,,,,103.5888,104.6879,l,0,0.4204,,0.4204,0,104.6931,105.1893,105.193,105.1952,-0.08203125,-0.350260417,0,0,0,,0,2,2,40,1,41,FEM,DIS,150,0,cruz,el,4,,,,
,,,,,,,2c0a0e05575eb676ad08be69,67d30250bc6dd184d4aaad81,67d7f68faa87c890fd7bb651,2025-03-17_04h17.09.330,Tarea de clasificación semántica,2024.2.5,Linux x86_64,59.88023952,,,,,,,,,,,,,,,,,,,,,,,105.1966,106.6356,s,1,0.7706,,0.7706,1,106.6471,107.1262,107.1264,107.1267,-0.08203125,-0.350260417,0,0,0,,0,3,3,415,1,416,MAS,AGR,150,0,aceite,el,6,,,,
,,,,,,,2c0a0e05575eb676ad08be69,67d30250bc6dd184d4aaad81,67d7f68faa87c890fd7bb651,2025-03-17_04h17.09.330,Tarea de clasificación semántica,2024.2.5,Linux x86_64,59.88023952,,,,,,,,,,,,,,,,,,,,,,,107.1306,108.2792,s,1,0.4927,,0.4927,1,108.2794,108.7808,108.7809,108.7812,-0.08203125,-0.350260417,0,0,0,,0,4,4,223,1,224,MAS,AGR,150,0,dedo,el,4,,,,
,,,,,,,2c0a0e05575eb676ad08be69,67d30250bc6dd184d4aaad81,67d7f68faa87c890fd7bb651,2025-03-17_04h17.09.330,Tarea de clasificación semántica,2024.2.5,Linux x86_64,59.88023952,,,,,,,,,,,,,,,,,,,,,,,108.7835,109.867,s,1,0.4215,,0.4215,1,109.8674,110.3678,110.3679,110.3682,-0.08203125,-0.350260417,0,0,0,,0,5,5,85,1,86,FEM,AGR,150,0,prisa,la,5,,,,
,,,,,,,2c0a0e05575eb676ad08be69,67d30250bc6dd184d4aaad81,67d7f68faa87c890fd7bb651,2025-03-17_04h17.09.330,Tarea de clasificación semántica,2024.2.5,Linux x86_64,59.88023952,,,,,,,,,,,,,,,,,,,,,,,110.3716,111.3536,s,1,0.3193,,0.3193,1,111.3537,111.855,111.8552,111.8557,-0.08203125,-0.350260417,0,0,0,,0,6,6,350,1,351,MAS,DIS,150,0,cuerpo,la,6,,,,
,,,,,,,2c0a0e05575eb676ad08be69,67d30250bc6dd184d4aaad81,67d7f68faa87c890fd7bb651,2025-03-17_04h17.09.330,Tarea de clasificación semántica,2024.2.5,Linux x86_64,59.88023952,,,,,,,,,,,,,,,,,,,,,,,111.8588,112.8735,s,1,0.3384,,0.3384,1,112.8737,113.3753,113.3754,113.376,-0.08203125,-0.350260417,0,0,0,,0,7,7,154,1,155,FEM,DIS,150,0,basura,el,6,,,,
,,,,,,,2c0a0e05575eb676ad08be69,67d30250bc6dd184d4aaad81,67d7f68faa87c890fd7bb651,2025-03-17_04h17.09.330,Tarea de clasificación semántica,2024.2.5,Linux x86_64,59.88023952,,,,,,,,,,,,,,,,,,,,,,,113.3791,114.5276,l,0,0.4881,,0.4881,0,114.5299,115.0292,115.0332,115.0347,-0.08203125,-0.350260417,0,0,0,,0,8,8,249,1,250,MAS,AGR,150,0,nido,el,4,,,,
,,,,,,,2c0a0e05575eb676ad08be69,67d30250bc6dd184d4aaad81,67d7f68faa87c890fd7bb651,2025-03-17_04h17.09.330,Tarea de clasificación semántica,2024.2.5,Linux x86_64,59.88023952,,,,,,,,,,,,,,,,,,,,,,,115.0363,116.0646,s,1,0.3537,,0.3537,1,116.0675,116.5661,116.5662,116.5665,-0.08203125,-0.350260417,0,0,0,,0,9,9,28,1,29,FEM,DIS,150,0,bola,el,4,,,,
,,,,,,,2c0a0e05575eb676ad08be69,67d30250bc6dd184d4aaad81,67d7f68faa87c890fd7bb651,2025-03-17_04h17.09.330,Tarea de clasificación semántica,2024.2.5,Linux x86_64,59.88023952,,,,,,,,,,,,,,,,,,,,,,,116.5691,117.686,s,1,0.4574,,0.4574,1,117.6862,118.1873,118.1875,118.1878,-0.08203125,-0.350260417,0,0,0,,0,10,10,88,1,89,FEM,DIS,150,0,pista,el,5,,,,
,,,,,,,2c0a0e05575eb676ad08be69,67d30250bc6dd184d4aaad81,67d7f68faa87c890fd7bb651,2025-03-17_04h17.09.330,Tarea de clasificación semántica,2024.2.5,Linux x86_64,59.88023952,,,,,,,,,,,,,,,,,,,,,,,118.1911,119.2245,s,1,0.3633,,0.3633,1,119.2246,119.7235,119.7237,119.7239,-0.08203125,-0.350260417,0,0,0,,0,11,11,201,1,202,FEM,AGR,150,0,corona,la,6,,,,
,,,,,,,2c0a0e05575eb676ad08be69,67d30250bc6dd184d4aaad81,67d7f68faa87c890fd7bb651,2025-03-17_04h17.09.330,Tarea de clasificación semántica,2024.2.5,Linux x86_64,59.88023952,,,,,,,,,,,,,,,,,,,,,,,119.7269,120.6272,s,1,0.2432,,0.2432,1,120.6274,121.1267,121.1273,121.1277,-0.08203125,-0.350260417,0,0,0,,0,12,12,193,1,194,FEM,AGR,150,0,colina,la,6,,,,
,,,,,,,2c0a0e05575eb676ad08be69,67d30250bc6dd184d4aaad81,67d7f68faa87c890fd7bb651,2025-03-17_04h17.09.330,Tarea de clasificación semántica,2024.2.5,Linux x86_64,59.88023952,,,,,,,,,,,,,,,,,,,,,,,121.1313,122.1635,s,1,0.3687,,0.3687,1,122.1636,122.6642,122.6675,122.6695,-0.08203125,-0.350260417,0,0,0,,0,13,13,260,1,261,MAS,DIS,150,0,clan,la,4,,,,
,,,,,,,2c0a0e05575eb676ad08be69,67d30250bc6dd184d4aaad81,67d7f68faa87c890fd7bb651,2025-03-17_04h17.09.330,Tarea de clasificación semántica,2024.2.5,Linux x86_64,59.88023952,,,,,,,,,,,,,,,,,,,,,,,122.6709,123.6685,s,1,0.3296,,0.3296,1,123.6687,124.1677,124.1679,124.1681,-0.08203125,-0.350260417,0,0,0,,0,14,14,271,1,272,MAS,AGR,150,0,amor,el,4,,,,
,,,,,,,2c0a0e05575eb676ad08be69,67d30250bc6dd184d4aaad81,67d7f68faa87c890fd7bb651,2025-03-17_04h17.09.330,Tarea de clasificación semántica,2024.2.5,Linux x86_64,59.88023952,,,,,,,,,,,,,,,,,,,,,,,124.1708,125.1208,s,1,0.2871,,0.2871,1,125.121,125.6212,125.6213,125.6215,-0.08203125,-0.350260417,0,0,0,,0,15,15,362,1,363,MAS,DIS,150,0,pasado,la,6,,,,
,,,,,,,2c0a0e05575eb676ad08be69,67d30250bc6dd184d4aaad81,67d7f68faa87c890fd7bb651,2025-03-17_04h17.09.330,Tarea de clasificación semántica,2024.2.5,Linux x86_64,59.88023952,,,,,,,,,,,,,,,,,,,,,,,125.6247,126.7409,l,1,0.4578,,0.4578,1,126.7411,127.2418,127.2418,127.2421,-0.08203125,-0.350260417,0,0,0,,0,16,16,471,1,472,FEM,AGR,150,1,mosca,la,5,,,,
,,,,,,,2c0a0e05575eb676ad08be69,67d30250bc6dd184d4aaad81,67d7f68faa87c890fd7bb651,2025-03-17_04h17.09.330,Tarea de clasificación semántica,2024.2.5,Linux x86_64,59.88023952,,,,,,,,,,,,,,,,,,,,,,,127.2452,128.2612,s,1,0.3536,,0.3536,1,128.2613,128.7627,128.7628,128.763,-0.08203125,-0.350260417,0,0,0,,0,17,17,316,1,317,MAS,DIS,150,0,ruido,la,5,,,,
,,,,,,,2c0a0e05575eb676ad08be69,67d30250bc6dd184d4aaad81,67d7f68faa87c890fd7bb651,2025-03-17_04h17.09.330,Tarea de clasificación semántica,2024.2.5,Linux x86_64,59.88023952,,,,,,,,,,,,,,,,,,,,,,,128.7659,129.7978,s,1,0.3523,,0.3523,1,129.7979,130.3,130.3002,130.3004,-0.08203125,-0.350260417,0,0,0,,0,18,18,346,1,347,MAS,DIS,150,0,dinero,la,6,,,,
,,,,,,,2c0a0e05575eb676ad08be69,67d30250bc6dd184d4aaad81,67d7f68faa87c890fd7bb651,2025-03-17_04h17.09.330,Tarea de clasificación semántica,2024.2.5,Linux x86_64,59.88023952,,,,,,,,,,,,,,,,,,,,,,,130.3029,131.3858,s,1,0.4223,,0.4223,1,131.3859,131.8869,131.8906,131.8919,-0.08203125,-0.350260417,0,0,0,,0,19,19,228,1,229,MAS,DIS,150,0,olor,la,4,,,,
,,,,,,,2c0a0e05575eb676ad08be69,67d30250bc6dd184d4aaad81,67d7f68faa87c890fd7bb651,2025-03-17_04h17.09.330,Tarea de clasificación semántica,2024.2.5,Linux x86_64,59.88023952,,,,,,,,,,,,,,,,,,,,,,,131.8936,132.8578,s,1,0.2969,,0.2969,1,132.8579,133.3567,133.3568,133.357,-0.08203125,-0.350260417,0,0,0,,0,20,20,119,1,120,FEM,AGR,150,0,tribu,la,5,,,,
,,,,,,,2c0a0e05575eb676ad08be69,67d30250bc6dd184d4aaad81,67d7f68faa87c890fd7bb651,2025-03-17_04h17.09.330,Tarea de clasificación semántica,2024.2.5,Linux x86_64,59.88023952,,,,,,,,,,,,,,,,,,,,,,,133.3597,134.3596,s,1,0.3359,,0.3359,1,134.3599,134.8606,134.8606,134.8608,-0.08203125,-0.350260417,0,0,0,,0,21,21,196,1,197,FEM,DIS,150,0,poesía,el,6,,,,
,,,,,,,2c0a0e05575eb676ad08be69,67d30250bc6dd184d4aaad81,67d7f68faa87c890fd7bb651,2025-03-17_04h17.09.330,Tarea de clasificación semántica,2024.2.5,Linux x86_64,59.88023952,,,,,,,,,,,,,,,,,,,,,,,134.8675,135.83,s,1,0.2966,,0.2966,1,135.8302,136.3314,136.3315,136.3318,-0.08203125,-0.350260417,0,0,0,,0,22,22,255,1,256,MAS,AGR,150,0,reto,el,4,,,,
,,,,,,,2c0a0e05575eb676ad08be69,67d30250bc6dd184d4aaad81,67d7f68faa87c890fd7bb651,2025-03-17_04h17.09.330,Tarea de clasificación semántica,2024.2.5,Linux x86_64,59.88023952,,,,,,,,,,,,,,,,,,,,,,,136.3343,137.2835,s,1,0.2687,,0.2687,1,137.2837,137.7847,137.7848,137.785,-0.08203125,-0.350260417,0,0,0,,0,23,23,265,1,266,MAS,AGR,150,0,velo,el,4,,,,
,,,,,,,2c0a0e05575eb676ad08be69,67d30250bc6dd184d4aaad81,67d7f68faa87c890fd7bb651,2025-03-17_04h17.09.330,Tarea de clasificación semántica,2024.2.5,Linux x86_64,59.88023952,,,,,,,,,,,,,,,,,,,,,,,137.7879,138.7703,s,1,0.3168,,0.3168,1,138.7705,139.2715,139.2716,139.2718,-0.08203125,-0.350260417,0,0,0,,0,24,24,145,1,146,FEM,AGR,150,0,señora,la,6,,,,
,,,,,,,2c0a0e05575eb676ad08be69,67d30250bc6dd184d4aaad81,67d7f68faa87c890fd7bb651,2025-03-17_04h17.09.330,Tarea de clasificación semántica,2024.2.5,Linux x86_64,59.88023952,,,,,,,,,,,,,,,,,,,,,,,139.2748,140.2575,s,1,0.3264,,0.3264,1,140.2576,140.7583,140.7619,140.7639,-0.08203125,-0.350260417,0,0,0,,0,25,25,344,1,345,MAS,DIS,150,0,tiempo,la,6,,,,
,,,,,,,2c0a0e05575eb676ad08be69,67d30250bc6dd184d4aaad81,67d7f68faa87c890fd7bb651,2025-03-17_04h17.09.330,Tarea de clasificación semántica,2024.2.5,Linux x86_64,59.88023952,,,,,,,,,,,,,,,,,,,,,,,140.7662,141.6617,s,1,0.2292,,0.2292,1,141.662,142.1621,142.1622,142.1625,-0.08203125,-0.350260417,0,0,0,,0,26,26,151,1,152,FEM,AGR,150,0,música,la,6,,,,
,,,,,,,2c0a0e05575eb676ad08be69,67d30250bc6dd184d4aaad81,67d7f68faa87c890fd7bb651,2025-03-17_04h17.09.330,Tarea de clasificación semántica,2024.2.5,Linux x86_64,59.88023952,,,,,,,,,,,,,,,,,,,,,,,142.1657,143.1134,s,1,0.2768,,0.2768,1,143.1135,143.6147,143.6149,143.615,-0.08203125,-0.350260417,0,0,0,,0,27,27,302,1,303,MAS,DIS,150,0,baile,la,5,,,,
,,,,,,,2c0a0e05575eb676ad08be69,67d30250bc6dd184d4aaad81,67d7f68faa87c890fd7bb651,2025-03-17_04h17.09.330,Tarea de clasificación semántica,2024.2.5,Linux x86_64,59.88023952,,,,,,,,,,,,,,,,,,,,,,,143.6177,144.5008,s,1,0.2203,,0.2203,1,144.501,145.0013,145.0015,145.0019,-0.08203125,-0.350260417,0,0,0,,0,28,28,144,1,145,FEM,DIS,150,0,ciudad,el,6,,,,
,,,,,,,2c0a0e05575eb676ad08be69,67d30250bc6dd184d4aaad81,67d7f68faa87c890fd7bb651,2025-03-17_04h17.09.330,Tarea de clasificación semántica,2024.2.5,Linux x86_64,59.88023952,,,,,,,,,,,,,,,,,,,,,,,145.0048,145.922,s,1,0.2599,,0.2599,1,145.9222,146.4217,146.4217,146.422,-0.08203125,-0.350260417,0,0,0,,0,29,29,24,1,25,FEM,DIS,150,0,piel,el,4,,,,
,,,,,,,2c0a0e05575eb676ad08be69,67d30250bc6dd184d4aaad81,67d7f68faa87c890fd7bb651,2025-03-17_04h17.09.330,Tarea de clasificación semántica,2024.2.5,Linux x86_64,59.88023952,,,,,,,,,,,,,,,,,,,,,,,146.4243,147.3909,s,0,0.3027,,0.3027,0,147.3932,147.8926,147.8962,147.8976,-0.08203125,-0.350260417,0,0,0,,0,30,30,438,1,439,FEM,DIS,150,1,liebre,el,6,,,,
,,,,,,,2c0a0e05575eb676ad08be69,67d30250bc6dd184d4aaad81,67d7f68faa87c890fd7bb651,2025-03-17_04h17.09.330,Tarea de clasificación semántica,2024.2.5,Linux x86_64,59.88023952,,,,,,,,,,,,,,,,,,,,,,,147.8994,148.996,s,1,0.4307,,0.4307,1,148.9985,149.4954,149.4955,149.4956,-0.08203125,-0.350260417,0,0,0,,0,31,31,31,1,32,FEM,AGR,150,0,sopa,la,4,,,,
,,,,,,,2c0a0e05575eb676ad08be69,67d30250bc6dd184d4aaad81,67d7f68faa87c890fd7bb651,2025-03-17_04h17.09.330,Tarea de clasificación semántica,2024.2.5,Linux x86_64,59.88023952,,,,,,,,,,,,,,,,,,,,,,,149.4982,150.4312,s,0,0.2725,,0.2725,0,150.4329,150.9336,150.9337,150.9339,-0.08203125,-0.350260417,0,0,0,,0,32,32,423,1,424,FEM,AGR,150,1,loba,la,4,,,,
,,,,,,,2c0a0e05575eb676ad08be69,67d30250bc6dd184d4aaad81,67d7f68faa87c890fd7bb651,2025-03-17_04h17.09.330,Tarea de clasificación semántica,2024.2.5,Linux x86_64,59.88023952,,,,,,,,,,,,,,,,,,,,,,,150.9369,151.9684,s,1,0.3571,,0.3571,1,151.9707,152.4696,152.4698,152.4699,-0.08203125,-0.350260417,0,0,0,,0,33,33,413,1,414,MAS,AGR,150,0,templo,el,6,,,,
,,,,,,,2c0a0e05575eb676ad08be69,67d30250bc6dd184d4aaad81,67d7f68faa87c890fd7bb651,2025-03-17_04h17.09.330,Tarea de clasificación semántica,2024.2.5,Linux x86_64,59.88023952,,,,,,,,,,,,,,,,,,,,,,,152.4727,153.5555,s,1,0.4198,,0.4198,1,153.5556,154.057,154.0572,154.0573,-0.08203125,-0.350260417,0,0,0,,0,34,34,105,1,106,FEM,AGR,150,0,arena,la,5,,,,
,,,,,,,2c0a0e05575eb676ad08be69,67d30250bc6dd184d4aaad81,67d7f68faa87c890fd7bb651,2025-03-17_04h17.09.330,Tarea de clasificación semántica,2024.2.5,Linux x86_64,59.88023952,,,,,,,,,,,,,,,,,,,,,,,154.0619,155.5109,l,0,0.7939,,0.7939,0,155.513,156.0119,156.012,156.0122,-0.08203125,-0.350260417,0,0,0,,0,35,35,345,1,346,MAS,AGR,150,0,hombre,el,6,,,,
,,,,,,,2c0a0e05575eb676ad08be69,67d30250bc6dd184d4aaad81,67d7f68faa87c890fd7bb651,2025-03-17_04h17.09.330,Tarea de clasificación semántica,2024.2.5,Linux x86_64,59.88023952,,,,,,,,,,,,,,,,,,,,,,,156.015,157.0472,s,1,0.354,,0.354,1,157.0498,157.5494,157.553,157.5555,-0.08203125,-0.350260417,0,0,0,,0,36,36,391,1,392,MAS,AGR,150,0,tesoro,el,6,,,,
,,,,,,,2c0a0e05575eb676ad08be69,67d30250bc6dd184d4aaad81,67d7f68faa87c890fd7bb651,2025-03-17_04h17.09.330,Tarea de clasificación semántica,2024.2.5,Linux x86_64,59.88023952,,,,,,,,,,,,,,,,,,,,,,,157.5576,158.6508,s,1,0.4188,,0.4188,1,158.6509,159.1532,159.1533,159.1535,-0.08203125,-0.350260417,0,0,0,,0,37,37,317,1,318,MAS,AGR,150,0,hielo,el,5,,,,
,,,,,,,2c0a0e05575eb676ad08be69,67d30250bc6dd184d4aaad81,67d7f68faa87c890fd7bb651,2025-03-17_04h17.09.330,Tarea de clasificación semántica,2024.2.5,Linux x86_64,59.88023952,,,,,,,,,,,,,,,,,,,,,,,159.1568,160.3059,s,1,0.478,,0.478,1,160.3062,160.8074,160.8075,160.8077,-0.08203125,-0.350260417,0,0,0,,0,38,38,139,1,140,FEM,AGR,150,0,cabeza,la,6,,,,
,,,,,,,2c0a0e05575eb676ad08be69,67d30250bc6dd184d4aaad81,67d7f68faa87c890fd7bb651,2025-03-17_04h17.09.330,Tarea de clasificación semántica,2024.2.5,Linux x86_64,59.88023952,,,,,,,,,,,,,,,,,,,,,,,160.8108,162.01,l,1,0.5337,,0.5337,1,162.0102,162.5112,162.5113,162.5116,-0.08203125,-0.350260417,0,0,0,,0,39,39,464,1,465,FEM,DIS,150,1,cabra,el,5,,,,
,,,,,,,2c0a0e05575eb676ad08be69,67d30250bc6dd184d4aaad81,67d7f68faa87c890fd7bb651,2025-03-17_04h17.09.330,Tarea de clasificación semántica,2024.2.5,Linux x86_64,59.88023952,,,,,,,,,,,,,,,,,,,,,,,162.5148,163.6635,l,1,0.4706,,0.4706,1,163.6638,164.1653,164.1654,164.1657,-0.08203125,-0.350260417,0,0,0,,0,40,40,528,1,529,MAS,DIS,150,1,toro,la,4,,,,
,,,,,,,2c0a0e05575eb676ad08be69,67d30250bc6dd184d4aaad81,67d7f68faa87c890fd7bb651,2025-03-17_04h17.09.330,Tarea de clasificación semántica,2024.2.5,Linux x86_64,59.88023952,,,,,,,,,,,,,,,,,,,,,,,164.1699,165.3015,l,1,0.4695,,0.4695,1,165.3017,165.8017,165.8049,165.8069,-0.08203125,-0.350260417,0,0,0,,0,41,41,483,1,484,FEM,AGR,150,1,gamba,la,5,,,,
,,,,,,,2c0a0e05575eb676ad08be69,67d30250bc6dd184d4aaad81,67d7f68faa87c890fd7bb651,2025-03-17_04h17.09.330,Tarea de clasificación semántica,2024.2.5,Linux x86_64,59.88023952,,,,,,,,,,,,,,,,,,,,,,,165.8088,167.0878,s,1,0.6046,,0.6046,1,167.088,167.5894,167.5894,167.5896,-0.08203125,-0.350260417,0,0,0,,0,42,42,282,1,283,MAS,DIS,150,0,sitio,la,5,,,,
,,,,,,,2c0a0e05575eb676ad08be69,67d30250bc6dd184d4aaad81,67d7f68faa87c890fd7bb651,2025-03-17_04h17.09.330,Tarea de clasificación semántica,2024.2.5,Linux x86_64,59.88023952,,,,,,,,,,,,,,,,,,,,,,,167.5924,168.6931,l,1,0.4391,,0.4391,1,168.6932,169.194,169.1941,169.195,-0.08203125,-0.350260417,0,0,0,,0,43,43,526,1,527,MAS,DIS,150,1,león,la,4,,,,
,,,,,,,2c0a0e05575eb676ad08be69,67d30250bc6dd184d4aaad81,67d7f68faa87c890fd7bb651,2025-03-17_04h17.09.330,Tarea de clasificación semántica,2024.2.5,Linux x86_64,59.88023952,,,,,,,,,,,,,,,,,,,,,,,169.1987,170.5642,l,1,0.6881,,0.6881,1,170.5643,171.0644,171.0644,171.0652,-0.08203125,-0.350260417,0,0,0,,0,44,44,536,1,537,MAS,DIS,150,1,tigre,la,5,,,,
,,,,,,,2c0a0e05575eb676ad08be69,67d30250bc6dd184d4aaad81,67d7f68faa87c890fd7bb651,2025-03-17_04h17.09.330,Tarea de clasificación semántica,2024.2.5,Linux x86_64,59.88023952,,,,,,,,,,,,,,,,,,,,,,,171.0679,172.2342,s,1,0.5022,,0.5022,1,172.2343,172.7357,172.7359,172.7361,-0.08203125,-0.350260417,0,0,0,,0,45,45,13,1,14,FEM,AGR,150,0,pena,la,4,,,,
,,,,,,,2c0a0e05575eb676ad08be69,67d30250bc6dd184d4aaad81,67d7f68faa87c890fd7bb651,2025-03-17_04h17.09.330,Tarea de clasificación semántica,2024.2.5,Linux x86_64,59.88023952,,,,,,,,,,,,,,,,,,,,,,,172.7386,173.9379,s,1,0.5436,,0.5436,1,173.938,174.4392,174.4393,174.4395,-0.08203125,-0.350260417,0,0,0,,0,46,46,339,1,340,MAS,AGR,150,0,patio,el,5,,,,
,,,,,,,2c0a0e05575eb676ad08be69,67d30250bc6dd184d4aaad81,67d7f68faa87c890fd7bb651,2025-03-17_04h17.09.330,Tarea de clasificación semántica,2024.2.5,Linux x86_64,59.88023952,,,,,,,,,,,,,,,,,,,,,,,174.4419,175.5424,s,1,0.4356,,0.4356,1,175.5425,176.0431,176.0467,176.0485,-0.08203125,-0.350260417,0,0,0,,0,47,47,46,1,47,FEM,DIS,150,0,fuga,el,4,,,,
,,,,,,,2c0a0e05575eb676ad08be69,67d30250bc6dd184d4aaad81,67d7f68faa87c890fd7bb651,2025-03-17_04h17.09.330,Tarea de clasificación semántica,2024.2.5,Linux x86_64,59.88023952,,,,,,,,,,,,,,,,,,,,,,,176.0501,177.2296,s,1,0.5024,,0.5024,1,177.2297,177.7309,177.7309,177.7312,-0.08203125,-0.350260417,0,0,0,,0,48,48,92,1,93,FEM,DIS,150,0,nariz,el,5,,,,
,,,,,,,2c0a0e05575eb676ad08be69,67d30250bc6dd184d4aaad81,67d7f68faa87c890fd7bb651,2025-03-17_04h17.09.330,Tarea de clasificación semántica,2024.2.5,Linux x86_64,59.88023952,,,,,,,,,,,,,,,,,,,,,,,177.7338,178.817,s,1,0.4022,,0.4022,1,178.8171,179.3186,179.3187,179.3189,-0.08203125,-0.350260417,0,0,0,,0,49,49,108,1,109,FEM,DIS,150,0,regla,el,5,,,,
,,,,,,,2c0a0e05575eb676ad08be69,67d30250bc6dd184d4aaad81,67d7f68faa87c890fd7bb651,2025-03-17_04h17.09.330,Tarea de clasificación semántica,2024.2.5,Linux x86_64,59.88023952,,,,,,,,,,,,,,,,,,,,,,,179.3222,180.5048,s,1,0.523,,0.523,1,180.505,181.0051,181.0051,181.0054,-0.08203125,-0.350260417,0,0,0,,0,50,50,19,1,20,FEM,AGR,150,0,obra,la,4,,,,
,,,,,,,2c0a0e05575eb676ad08be69,67d30250bc6dd184d4aaad81,67d7f68faa87c890fd7bb651,2025-03-17_04h17.09.330,Tarea de clasificación semántica,2024.2.5,Linux x86_64,59.88023952,,,,,,,,,,,,,,,,,,,,,,,181.0079,182.2087,s,1,0.5351,,0.5351,1,182.2088,182.7099,182.71,182.7102,-0.08203125,-0.350260417,0,0,0,,0,51,51,21,1,22,FEM,AGR,150,0,nena,la,4,,,,
,,,,,,,2c0a0e05575eb676ad08be69,67d30250bc6dd184d4aaad81,67d7f68faa87c890fd7bb651,2025-03-17_04h17.09.330,Tarea de clasificación semántica,2024.2.5,Linux x86_64,59.88023952,,,,,,,,,,,,,,,,,,,,,,,182.7128,183.9465,l,1,0.5735,,0.5735,1,183.9467,184.4476,184.4507,184.4524,-0.08203125,-0.350260417,0,0,0,,0,52,52,434,1,435,FEM,DIS,150,1,araña,el,5,,,,
,,,,,,,2c0a0e05575eb676ad08be69,67d30250bc6dd184d4aaad81,67d7f68faa87c890fd7bb651,2025-03-17_04h17.09.330,Tarea de clasificación semántica,2024.2.5,Linux x86_64,59.88023952,,,,,,,,,,,,,,,,,,,,,,,184.4542,185.6503,s,1,0.5207,,0.5207,1,185.6505,186.1516,186.1517,186.1519,-0.08203125,-0.350260417,0,0,0,,0,53,53,287,1,288,MAS,AGR,150,0,fuego,el,5,,,,
,,,,,,,2c0a0e05575eb676ad08be69,67d30250bc6dd184d4aaad81,67d7f68faa87c890fd7bb651,2025-03-17_04h17.09.330,Tarea de clasificación semántica,2024.2.5,Linux x86_64,59.88023952,,,,,,,,,,,,,,,,,,,,,,,186.1547,187.3539,s,1,0.536,,0.536,1,187.3541,187.8554,187.8555,187.8557,-0.08203125,-0.350260417,0,0,0,,0,54,54,306,1,307,MAS,DIS,150,0,huevo,la,5,,,,
,,,,,,,2c0a0e05575eb676ad08be69,67d30250bc6dd184d4aaad81,67d7f68faa87c890fd7bb651,2025-03-17_04h17.09.330,Tarea de clasificación semántica,2024.2.5,Linux x86_64,59.88023952,,,,,,,,,,,,,,,,,,,,,,,187.8588,189.1088,s,1,0.5878,,0.5878,1,189.109,189.61,189.6102,189.6104,-0.08203125,-0.350260417,0,0,0,,0,55,55,351,1,352,MAS,AGR,150,0,número,el,6,,,,
,,,,,,,2c0a0e05575eb676ad08be69,67d30250bc6dd184d4aaad81,67d7f68faa87c890fd7bb651,2025-03-17_04h17.09.330,Tarea de clasificación semántica,2024.2.5,Linux x86_64,59.88023952,,,,,,,,,,,,,,,,,,,,,,,189.6141,190.747,l,1,0.4804,,0.4804,1,190.7479,191.2476,191.2477,191.248,-0.08203125,-0.350260417,0,0,0,,0,56,56,482,1,483,FEM,DIS,150,1,piraña,el,6,,,,
,,,,,,,2c0a0e05575eb676ad08be69,67d30250bc6dd184d4aaad81,67d7f68faa87c890fd7bb651,2025-03-17_04h17.09.330,Tarea de clasificación semántica,2024.2.5,Linux x86_64,59.88023952,,,,,,,,,,,,,,,,,,,,,,,191.2511,192.4995,s,1,0.5693,,0.5693,1,192.4995,193.0017,193.0018,193.002,-0.08203125,-0.350260417,0,0,0,,0,57,57,50,1,51,FEM,DIS,150,0,jefa,el,4,,,,
,,,,,,,2c0a0e05575eb676ad08be69,67d30250bc6dd184d4aaad81,67d7f68faa87c890fd7bb651,2025-03-17_04h17.09.330,Tarea de clasificación semántica,2024.2.5,Linux x86_64,59.88023952,,,,,,,,,,,,,,,,,,,,,,,193.0046,194.104,s,0,0.4081,,0.4081,0,194.1082,194.6059,194.6104,194.6117,-0.08203125,-0.350260417,0,0,0,,0,58,58,506,1,507,MAS,DIS,150,1,gecko,la,5,,,,
,,,,,,,2c0a0e05575eb676ad08be69,67d30250bc6dd184d4aaad81,67d7f68faa87c890fd7bb651,2025-03-17_04h17.09.330,Tarea de clasificación semántica,2024.2.5,Linux x86_64,59.88023952,,,,,,,,,,,,,,,,,,,,,,,194.6134,195.7746,l,1,0.4918,,0.4918,1,195.7775,196.2764,196.2766,196.2768,-0.08203125,-0.350260417,0,0,0,,0,59,59,492,1,493,MAS,DIS,150,1,pato,la,4,,,,
,,,,,,,2c0a0e05575eb676ad08be69,67d30250bc6dd184d4aaad81,67d7f68faa87c890fd7bb651,2025-03-17_04h17.09.330,Tarea de clasificación semántica,2024.2.5,Linux x86_64,59.88023952,,,,,,,,,,,,,,,,,,,,,,,196.28,197.3632,s,1,0.4112,,0.4112,1,197.3634,197.8635,197.8635,197.8638,-0.08203125,-0.350260417,0,0,0,,0,60,60,285,1,286,MAS,AGR,150,0,punto,el,5,,,,
,,,,,,,2c0a0e05575eb676ad08be69,67d30250bc6dd184d4aaad81,67d7f68faa87c890fd7bb651,2025-03-17_04h17.09.330,Tarea de clasificación semántica,2024.2.5,Linux x86_64,59.88023952,,,,,,,,,,,,,,,,,,,,,,,197.8666,199.0657,s,1,0.5408,,0.5408,1,199.0658,199.567,199.567,199.5673,-0.08203125,-0.350260417,0,0,0,,0,61,61,189,1,190,FEM,AGR,150,0,moneda,la,6,,,,
,,,,,,,2c0a0e05575eb676ad08be69,67d30250bc6dd184d4aaad81,67d7f68faa87c890fd7bb651,2025-03-17_04h17.09.330,Tarea de clasificación semántica,2024.2.5,Linux x86_64,59.88023952,,,,,,,,,,,,,,,,,,,,,,,199.5694,200.5859,s,1,0.3602,,0.3602,1,200.5861,201.0875,201.0877,201.0878,-0.08203125,-0.350260417,0,0,0,,0,62,62,324,1,325,MAS,DIS,150,0,polvo,la,5,,,,
,,,,,,,2c0a0e05575eb676ad08be69,67d30250bc6dd184d4aaad81,67d7f68faa87c890fd7bb651,2025-03-17_04h17.09.330,Tarea de clasificación semántica,2024.2.5,Linux x86_64,59.88023952,,,,,,,,,,,,,,,,,,,,,,,201.0916,202.0898,s,1,0.3211,,0.3211,1,202.09,202.5907,202.5938,202.5958,-0.08203125,-0.350260417,0,0,0,,0,63,63,127,1,128,FEM,AGR,150,0,oreja,la,5,,,,
,,,,,,,2c0a0e05575eb676ad08be69,67d30250bc6dd184d4aaad81,67d7f68faa87c890fd7bb651,2025-03-17_04h17.09.330,Tarea de clasificación semántica,2024.2.5,Linux x86_64,59.88023952,,,,,,,,,,,,,,,,,,,,,,,202.5975,203.6099,s,1,0.3408,,0.3408,1,203.61,204.1119,204.112,204.1123,-0.08203125,-0.350260417,0,0,0,,0,64,64,320,1,321,MAS,DIS,150,0,dueño,la,5,,,,
,,,,,,,2c0a0e05575eb676ad08be69,67d30250bc6dd184d4aaad81,67d7f68faa87c890fd7bb651,2025-03-17_04h17.09.330,Tarea de clasificación semántica,2024.2.5,Linux x86_64,59.88023952,,,,,,,,,,,,,,,,,,,,,,,204.115,205.1319,s,1,0.3463,,0.3463,1,205.1322,205.6322,205.6324,205.6325,-0.08203125,-0.350260417,0,0,0,,0,65,65,370,1,371,MAS,DIS,150,0,camión,la,6,,,,
,,,,,,,2c0a0e05575eb676ad08be69,67d30250bc6dd184d4aaad81,67d7f68faa87c890fd7bb651,2025-03-17_04h17.09.330,Tarea de clasificación semántica,2024.2.5,Linux x86_64,59.88023952,,,,,,,,,,,,,,,,,,,,,,,205.6359,206.6204,s,1,0.331,,0.331,1,206.6206,207.1191,207.1192,207.1194,-0.08203125,-0.350260417,0,0,0,,0,66,66,37,1,38,FEM,AGR,150,0,mina,la,4,,,,
,,,,,,,2c0a0e05575eb676ad08be69,67d30250bc6dd184d4aaad81,67d7f68faa87c890fd7bb651,2025-03-17_04h17.09.330,Tarea de clasificación semántica,2024.2.5,Linux x86_64,59.88023952,,,,,,,,,,,,,,,,,,,,,,,207.1226,208.1053,s,1,0.3277,,0.3277,1,208.1059,208.6059,208.6059,208.6062,-0.08203125,-0.350260417,0,0,0,,0,67,67,293,1,294,MAS,AGR,150,0,grupo,el,5,,,,
,,,,,,,2c0a0e05575eb676ad08be69,67d30250bc6dd184d4aaad81,67d7f68faa87c890fd7bb651,2025-03-17_04h17.09.330,Tarea de clasificación semántica,2024.2.5,Linux x86_64,59.88023952,,,,,,,,,,,,,,,,,,,,,,,208.6091,209.5749,s,1,0.3066,,0.3066,1,209.5752,210.076,210.0761,210.0763,-0.08203125,-0.350260417,0,0,0,,0,68,68,138,1,139,FEM,DIS,150,0,verdad,el,6,,,,
,,,,,,,2c0a0e05575eb676ad08be69,67d30250bc6dd184d4aaad81,67d7f68faa87c890fd7bb651,2025-03-17_04h17.09.330,Tarea de clasificación semántica,2024.2.5,Linux x86_64,59.88023952,,,,,,,,,,,,,,,,,,,,,,,210.0794,211.0451,s,1,0.301,,0.301,1,211.0451,211.5464,211.5498,211.5521,-0.08203125,-0.350260417,0,0,0,,0,69,69,358,1,359,MAS,DIS,150,0,estado,la,6,,,,
,,,,,,,2c0a0e05575eb676ad08be69,67d30250bc6dd184d4aaad81,67d7f68faa87c890fd7bb651,2025-03-17_04h17.09.330,Tarea de clasificación semántica,2024.2.5,Linux x86_64,59.88023952,,,,,,,,,,,,,,,,,,,,,,,211.5555,212.6494,s,1,0.4205,,0.4205,1,212.6495,213.1502,213.1504,213.1505,-0.08203125,-0.350260417,0,0,0,,0,70,70,61,1,62,FEM,AGR,150,0,joya,la,4,,,,
,,,,,,,2c0a0e05575eb676ad08be69,67d30250bc6dd184d4aaad81,67d7f68faa87c890fd7bb651,2025-03-17_04h17.09.330,Tarea de clasificación semántica,2024.2.5,Linux x86_64,59.88023952,,,,,,,,,,,,,,,,,,,,,,,213.1537,214.3856,s,1,0.5703,,0.5703,1,214.3858,214.887,214.8871,214.8874,-0.08203125,-0.350260417,0,0,0,,0,71,71,295,1,296,MAS,AGR,150,0,avión,el,5,,,,
,,,,,,,2c0a0e05575eb676ad08be69,67d30250bc6dd184d4aaad81,67d7f68faa87c890fd7bb651,2025-03-17_04h17.09.330,Tarea de clasificación semántica,2024.2.5,Linux x86_64,59.88023952,,,,,,,,,,,,,,,,,,,,,,,214.89,216.1402,l,1,0.5894,,0.5894,1,216.1404,216.6417,216.6419,216.6423,-0.08203125,-0.350260417,0,0,0,,0,72,72,523,1,524,MAS,AGR,150,1,mono,el,4,,,,
,,,,,,,2c0a0e05575eb676ad08be69,67d30250bc6dd184d4aaad81,67d7f68faa87c890fd7bb651,2025-03-17_04h17.09.330,Tarea de clasificación semántica,2024.2.5,Linux x86_64,59.88023952,,,,,,,,,,,,,,,,,,,,,,,216.6453,217.8448,l,1,0.5453,,0.5453,1,217.845,218.3456,218.3457,218.3459,-0.08203125,-0.350260417,0,0,0,,0,73,73,496,1,497,MAS,DIS,150,1,atún,la,4,,,,
,,,,,,,2c0a0e05575eb676ad08be69,67d30250bc6dd184d4aaad81,67d7f68faa87c890fd7bb651,2025-03-17_04h17.09.330,Tarea de clasificación semántica,2024.2.5,Linux x86_64,59.88023952,,,,,,,,,,,,,,,,,,,,,,,218.3483,219.6985,s,1,0.6864,,0.6864,1,219.6986,220.2008,220.201,220.2012,-0.08203125,-0.350260417,0,0,0,,0,74,74,185,1,186,FEM,AGR,150,0,hierba,la,6,,,,
,,,,,,,2c0a0e05575eb676ad08be69,67d30250bc6dd184d4aaad81,67d7f68faa87c890fd7bb651,2025-03-17_04h17.09.330,Tarea de clasificación semántica,2024.2.5,Linux x86_64,59.88023952,,,,,,,,,,,,,,,,,,,,,,,220.2038,221.3698,l,1,0.5031,,0.5031,1,221.3699,221.8714,221.8749,221.8767,-0.08203125,-0.350260417,0,0,0,,0,75,75,525,1,526,MAS,AGR,150,1,pavo,el,4,,,,
,,,,,,,2c0a0e05575eb676ad08be69,67d30250bc6dd184d4aaad81,67d7f68faa87c890fd7bb651,2025-03-17_04h17.09.330,Tarea de clasificación semántica,2024.2.5,Linux x86_64,59.88023952,,,,,,,,,,,,,,,,,,,,,,,221.8786,223.0078,s,1,0.4557,,0.4557,1,223.0079,223.5089,223.5091,223.5093,-0.08203125,-0.350260417,0,0,0,,0,76,76,97,1,98,FEM,AGR,150,0,playa,la,5,,,,
,,,,,,,2c0a0e05575eb676ad08be69,67d30250bc6dd184d4aaad81,67d7f68faa87c890fd7bb651,2025-03-17_04h17.09.330,Tarea de clasificación semántica,2024.2.5,Linux x86_64,59.88023952,,,,,,,,,,,,,,,,,,,,,,,223.5125,224.6286,s,1,0.4466,,0.4466,1,224.6288,225.1296,225.1297,225.1299,-0.08203125,-0.350260417,0,0,0,,0,77,77,220,1,221,MAS,DIS,150,0,frío,la,4,,,,
,,,,,,,2c0a0e05575eb676ad08be69,67d30250bc6dd184d4aaad81,67d7f68faa87c890fd7bb651,2025-03-17_04h17.09.330,Tarea de clasificación semántica,2024.2.5,Linux x86_64,59.88023952,,,,,,,,,,,,,,,,,,,,,,,225.1331,226.3653,s,1,0.5552,,0.5552,1,226.3655,226.8668,226.8669,226.8672,-0.08203125,-0.350260417,0,0,0,,0,78,78,35,1,36,FEM,AGR,150,0,flor,la,4,,,,
,,,,,,,2c0a0e05575eb676ad08be69,67d30250bc6dd184d4aaad81,67d7f68faa87c890fd7bb651,2025-03-17_04h17.09.330,Tarea de clasificación semántica,2024.2.5,Linux x86_64,59.88023952,,,,,,,,,,,,,,,,,,,,,,,226.8695,227.9523,s,1,0.4048,,0.4048,1,227.9525,228.4532,228.4534,228.4535,-0.08203125,-0.350260417,0,0,0,,0,79,79,101,1,102,FEM,AGR,150,0,tarea,la,5,,,,
,,,,,,,2c0a0e05575eb676ad08be69,67d30250bc6dd184d4aaad81,67d7f68faa87c890fd7bb651,2025-03-17_04h17.09.330,Tarea de clasificación semántica,2024.2.5,Linux x86_64,59.88023952,,,,,,,,,,,,,,,,,,,,,,,228.4562,229.4732,s,1,0.3515,,0.3515,1,229.4735,229.9752,229.9783,229.9798,-0.08203125,-0.350260417,0,0,0,,0,80,80,169,1,170,FEM,AGR,150,0,unidad,la,6,,,,
,,,,,,,2c0a0e05575eb676ad08be69,67d30250bc6dd184d4aaad81,67d7f68faa87c890fd7bb651,2025-03-17_04h17.09.330,Tarea de clasificación semántica,2024.2.5,Linux x86_64,59.88023952,,,,,,,,,,,,,,,,,,,,,,,229.9817,231.0106,s,1,0.3541,,0.3541,1,231.0108,231.5116,231.5117,231.5118,-0.08203125,-0.350260417,0,0,0,,0,81,81,298,1,299,MAS,DIS,150,0,novio,la,5,,,,
,,,,,,,2c0a0e05575eb676ad08be69,67d30250bc6dd184d4aaad81,67d7f68faa87c890fd7bb651,2025-03-17_04h17.09.330,Tarea de clasificación semántica,2024.2.5,Linux x86_64,59.88023952,,,,,,,,,,,,,,,,,,,,,,,231.5141,232.6148,s,1,0.4201,,0.4201,1,232.615,233.1149,233.115,233.1152,-0.08203125,-0.350260417,0,0,0,,0,82,82,251,1,252,MAS,AGR,150,0,coro,el,4,,,,
,,,,,,,2c0a0e05575eb676ad08be69,67d30250bc6dd184d4aaad81,67d7f68faa87c890fd7bb651,2025-03-17_04h17.09.330,Tarea de clasificación semántica,2024.2.5,Linux x86_64,59.88023952,,,,,,,,,,,,,,,,,,,,,,,233.1182,234.1171,s,1,0.3375,,0.3375,1,234.1172,234.6191,234.6192,234.6194,-0.08203125,-0.350260417,0,0,0,,0,83,83,263,1,264,MAS,AGR,150,0,yate,el,4,,,,
,,,,,,,2c0a0e05575eb676ad08be69,67d30250bc6dd184d4aaad81,67d7f68faa87c890fd7bb651,2025-03-17_04h17.09.330,Tarea de clasificación semántica,2024.2.5,Linux x86_64,59.88023952,,,,,,,,,,,,,,,,,,,,,,,234.6232,235.6373,s,1,0.3366,,0.3366,1,235.6376,236.1393,236.1394,236.1396,-0.08203125,-0.350260417,0,0,0,,0,84,84,326,1,327,MAS,DIS,150,0,carro,la,5,,,,
,,,,,,,2c0a0e05575eb676ad08be69,67d30250bc6dd184d4aaad81,67d7f68faa87c890fd7bb651,2025-03-17_04h17.09.330,Tarea de clasificación semántica,2024.2.5,Linux x86_64,59.88023952,,,,,,,,,,,,,,,,,,,,,,,236.1429,237.1583,s,1,0.3342,,0.3342,1,237.1584,237.6592,237.6592,237.6595,-0.08203125,-0.350260417,0,0,0,,0,85,85,96,1,97,FEM,DIS,150,0,época,el,5,,,,
,,,,,,,2c0a0e05575eb676ad08be69,67d30250bc6dd184d4aaad81,67d7f68faa87c890fd7bb651,2025-03-17_04h17.09.330,Tarea de clasificación semántica,2024.2.5,Linux x86_64,59.88023952,,,,,,,,,,,,,,,,,,,,,,,237.6617,238.9788,l,1,0.6517,,0.6517,1,238.979,239.4808,239.4855,239.4869,-0.08203125,-0.350260417,0,0,0,,0,86,86,444,1,445,FEM,DIS,150,1,jirafa,el,6,,,,
,,,,,,,2c0a0e05575eb676ad08be69,67d30250bc6dd184d4aaad81,67d7f68faa87c890fd7bb651,2025-03-17_04h17.09.330,Tarea de clasificación semántica,2024.2.5,Linux x86_64,59.88023952,,,,,,,,,,,,,,,,,,,,,,,239.4883,240.6999,l,1,0.5337,,0.5337,1,240.7,241.2016,241.2018,241.2019,-0.08203125,-0.350260417,0,0,0,,0,87,87,433,1,434,FEM,AGR,150,1,yegua,la,5,,,,
,,,,,,,2c0a0e05575eb676ad08be69,67d30250bc6dd184d4aaad81,67d7f68faa87c890fd7bb651,2025-03-17_04h17.09.330,Tarea de clasificación semántica,2024.2.5,Linux x86_64,59.88023952,,,,,,,,,,,,,,,,,,,,,,,241.205,242.3875,s,1,0.5085,,0.5085,1,242.3876,242.8882,242.8882,242.8884,-0.08203125,-0.350260417,0,0,0,,0,88,88,338,1,339,MAS,DIS,150,0,piano,la,5,,,,
,,,,,,,2c0a0e05575eb676ad08be69,67d30250bc6dd184d4aaad81,67d7f68faa87c890fd7bb651,2025-03-17_04h17.09.330,Tarea de clasificación semántica,2024.2.5,Linux x86_64,59.88023952,,,,,,,,,,,,,,,,,,,,,,,242.891,244.058,s,1,0.5028,,0.5028,1,244.0581,244.5591,244.5592,244.5593,-0.08203125,-0.350260417,0,0,0,,0,89,89,58,1,59,FEM,DIS,150,0,tela,el,4,,,,
,,,,,,,2c0a0e05575eb676ad08be69,67d30250bc6dd184d4aaad81,67d7f68faa87c890fd7bb651,2025-03-17_04h17.09.330,Tarea de clasificación semántica,2024.2.5,Linux x86_64,59.88023952,,,,,,,,,,,,,,,,,,,,,,,244.5609,245.8628,l,1,0.6391,,0.6391,1,245.8629,246.3634,246.3637,246.3643,-0.08203125,-0.350260417,0,0,0,,0,90,90,427,1,428,FEM,AGR,150,1,ostra,la,5,,,,
,,,,,,,2c0a0e05575eb676ad08be69,67d30250bc6dd184d4aaad81,67d7f68faa87c890fd7bb651,2025-03-17_04h17.09.330,Tarea de clasificación semántica,2024.2.5,Linux x86_64,59.88023952,,,,,,,,,,,,,,,,,,,,,,,246.3674,247.467,l,1,0.444,,0.444,1,247.4676,247.9678,247.972,247.9736,-0.08203125,-0.350260417,0,0,0,,0,91,91,452,1,453,FEM,DIS,150,1,foca,el,4,,,,
,,,,,,,2c0a0e05575eb676ad08be69,67d30250bc6dd184d4aaad81,67d7f68faa87c890fd7bb651,2025-03-17_04h17.09.330,Tarea de clasificación semántica,2024.2.5,Linux x86_64,59.88023952,,,,,,,,,,,,,,,,,,,,,,,247.9753,249.0865,s,1,0.4377,,0.4377,1,249.0868,249.5887,249.5887,249.589,-0.08203125,-0.350260417,0,0,0,,0,92,92,208,1,209,MAS,DIS,150,0,tipo,la,4,,,,
,,,,,,,2c0a0e05575eb676ad08be69,67d30250bc6dd184d4aaad81,67d7f68faa87c890fd7bb651,2025-03-17_04h17.09.330,Tarea de clasificación semántica,2024.2.5,Linux x86_64,59.88023952,,,,,,,,,,,,,,,,,,,,,,,249.5918,251.0436,s,1,0.796,,0.796,1,251.0437,251.5431,251.5433,251.5434,-0.08203125,-0.350260417,0,0,0,,0,93,93,173,1,174,FEM,AGR,150,0,lluvia,la,6,,,,
,,,,,,,2c0a0e05575eb676ad08be69,67d30250bc6dd184d4aaad81,67d7f68faa87c890fd7bb651,2025-03-17_04h17.09.330,Tarea de clasificación semántica,2024.2.5,Linux x86_64,59.88023952,,,,,,,,,,,,,,,,,,,,,,,251.5466,252.5953,s,1,0.3893,,0.3893,1,252.5954,253.0964,253.0965,253.0968,-0.08203125,-0.350260417,0,0,0,,0,94,94,59,1,60,FEM,AGR,150,0,cuna,la,4,,,,
,,,,,,,2c0a0e05575eb676ad08be69,67d30250bc6dd184d4aaad81,67d7f68faa87c890fd7bb651,2025-03-17_04h17.09.330,Tarea de clasificación semántica,2024.2.5,Linux x86_64,59.88023952,,,,,,,,,,,,,,,,,,,,,,,253.0997,254.0819,s,1,0.3197,,0.3197,1,254.0821,254.5833,254.5834,254.5836,-0.08203125,-0.350260417,0,0,0,,0,95,95,134,1,135,FEM,DIS,150,0,tabla,el,5,,,,
,,,,,,,2c0a0e05575eb676ad08be69,67d30250bc6dd184d4aaad81,67d7f68faa87c890fd7bb651,2025-03-17_04h17.09.330,Tarea de clasificación semántica,2024.2.5,Linux x86_64,59.88023952,,,,,,,,,,,,,,,,,,,,,,,254.5859,255.5358,s,1,0.2902,,0.2902,1,255.536,256.0378,256.0378,256.038,-0.08203125,-0.350260417,0,0,0,,0,96,96,207,1,208,FEM,AGR,150,0,lupa,la,4,,,,
,,,,,,,2c0a0e05575eb676ad08be69,67d30250bc6dd184d4aaad81,67d7f68faa87c890fd7bb651,2025-03-17_04h17.09.330,Tarea de clasificación semántica,2024.2.5,Linux x86_64,59.88023952,,,,,,,,,,,,,,,,,,,,,,,256.0411,257.076,s,0,0.3798,,0.3798,0,257.0795,257.574,257.5777,257.5798,-0.08203125,-0.350260417,0,0,0,,0,97,97,552,1,553,MAS,DIS,150,1,koala,la,5,,,,
,,,,,,,2c0a0e05575eb676ad08be69,67d30250bc6dd184d4aaad81,67d7f68faa87c890fd7bb651,2025-03-17_04h17.09.330,Tarea de clasificación semántica,2024.2.5,Linux x86_64,59.88023952,,,,,,,,,,,,,,,,,,,,,,,257.5812,258.5937,l,1,0.3375,,0.3375,1,258.5959,259.0946,259.0947,259.0954,-0.08203125,-0.350260417,0,0,0,,0,98,98,487,1,488,MAS,AGR,150,1,gato,el,4,,,,
,,,,,,,2c0a0e05575eb676ad08be69,67d30250bc6dd184d4aaad81,67d7f68faa87c890fd7bb651,2025-03-17_04h17.09.330,Tarea de clasificación semántica,2024.2.5,Linux x86_64,59.88023952,,,,,,,,,,,,,,,,,,,,,,,259.0983,260.2139,s,1,0.4532,,0.4532,1,260.214,260.7152,260.7154,260.7156,-0.08203125,-0.350260417,0,0,0,,0,99,99,199,1,200,FEM,AGR,150,0,fianza,la,6,,,,
,,,,,,,2c0a0e05575eb676ad08be69,67d30250bc6dd184d4aaad81,67d7f68faa87c890fd7bb651,2025-03-17_04h17.09.330,Tarea de clasificación semántica,2024.2.5,Linux x86_64,59.88023952,,,,,,,,,,,,,,,,,,,,,,,260.7205,261.7847,s,1,0.3923,,0.3923,1,261.785,262.2858,262.2859,262.2862,-0.08203125,-0.350260417,0,0,0,,0,100,100,392,1,393,MAS,DIS,150,0,barrio,la,6,,,,
,,,,,,,2c0a0e05575eb676ad08be69,67d30250bc6dd184d4aaad81,67d7f68faa87c890fd7bb651,2025-03-17_04h17.09.330,Tarea de clasificación semántica,2024.2.5,Linux x86_64,59.88023952,,,,,,,,,,,,,,,,,,,,,,,262.289,263.2719,s,1,0.3001,,0.3001,1,263.272,263.7728,263.7729,263.7731,-0.08203125,-0.350260417,0,0,0,,0,101,101,268,1,269,MAS,DIS,150,0,luto,la,4,,,,
,,,,,,,2c0a0e05575eb676ad08be69,67d30250bc6dd184d4aaad81,67d7f68faa87c890fd7bb651,2025-03-17_04h17.09.330,Tarea de clasificación semántica,2024.2.5,Linux x86_64,59.88023952,,,,,,,,,,,,,,,,,,,,,,,263.7755,264.8756,s,1,0.4349,,0.4349,1,264.8757,265.3764,265.3796,265.3815,-0.08203125,-0.350260417,0,0,0,,0,102,102,323,1,324,MAS,AGR,150,0,pecho,el,5,,,,
,,,,,,,2c0a0e05575eb676ad08be69,67d30250bc6dd184d4aaad81,67d7f68faa87c890fd7bb651,2025-03-17_04h17.09.330,Tarea de clasificación semántica,2024.2.5,Linux x86_64,59.88023952,,,,,,,,,,,,,,,,,,,,,,,265.3833,266.5967,l,1,0.5376,,0.5376,1,266.5968,267.0977,267.0979,267.0981,-0.08203125,-0.350260417,0,0,0,,0,103,103,538,1,539,MAS,DIS,150,1,erizo,la,5,,,,
,,,,,,,2c0a0e05575eb676ad08be69,67d30250bc6dd184d4aaad81,67d7f68faa87c890fd7bb651,2025-03-17_04h17.09.330,Tarea de clasificación semántica,2024.2.5,Linux x86_64,59.88023952,,,,,,,,,,,,,,,,,,,,,,,267.1003,268.2505,s,1,0.4953,,0.4953,1,268.2506,268.7509,268.751,268.7512,-0.08203125,-0.350260417,0,0,0,,0,104,104,22,1,23,FEM,DIS,150,0,zona,el,4,,,,
,,,,,,,2c0a0e05575eb676ad08be69,67d30250bc6dd184d4aaad81,67d7f68faa87c890fd7bb651,2025-03-17_04h17.09.330,Tarea de clasificación semántica,2024.2.5,Linux x86_64,59.88023952,,,,,,,,,,,,,,,,,,,,,,,268.7537,269.987,l,1,0.5693,,0.5693,1,269.9871,270.4886,270.4887,270.4889,-0.08203125,-0.350260417,0,0,0,,0,105,105,490,1,491,MAS,DIS,150,1,pavo,la,4,,,,
,,,,,,,2c0a0e05575eb676ad08be69,67d30250bc6dd184d4aaad81,67d7f68faa87c890fd7bb651,2025-03-17_04h17.09.330,Tarea de clasificación semántica,2024.2.5,Linux x86_64,59.88023952,,,,,,,,,,,,,,,,,,,,,,,270.4916,271.6918,s,1,0.5396,,0.5396,1,271.6919,272.1933,272.1934,272.1936,-0.08203125,-0.350260417,0,0,0,,0,106,106,140,1,141,FEM,DIS,150,0,maldad,el,6,,,,
,,,,,,,2c0a0e05575eb676ad08be69,67d30250bc6dd184d4aaad81,67d7f68faa87c890fd7bb651,2025-03-17_04h17.09.330,Tarea de clasificación semántica,2024.2.5,Linux x86_64,59.88023952,,,,,,,,,,,,,,,,,,,,,,,272.1965,273.3626,l,1,0.4879,,0.4879,1,273.3627,273.8635,273.8635,273.8638,-0.08203125,-0.350260417,0,0,0,,0,107,107,501,1,502,MAS,AGR,150,1,tigre,el,5,,,,
,,,,,,,2c0a0e05575eb676ad08be69,67d30250bc6dd184d4aaad81,67d7f68faa87c890fd7bb651,2025-03-17_04h17.09.330,Tarea de clasificación semántica,2024.2.5,Linux x86_64,59.88023952,,,,,,,,,,,,,,,,,,,,,,,273.8673,275.1839,l,1,0.6526,,0.6526,1,275.1841,275.6851,275.6882,275.6899,-0.08203125,-0.350260417,0,0,0,,0,108,108,512,1,513,MAS,DIS,150,1,narval,la,6,,,,
,,,,,,,2c0a0e05575eb676ad08be69,67d30250bc6dd184d4aaad81,67d7f68faa87c890fd7bb651,2025-03-17_04h17.09.330,Tarea de clasificación semántica,2024.2.5,Linux x86_64,59.88023952,,,,,,,,,,,,,,,,,,,,,,,275.6914,277.2715,s,1,0.9064,,0.9064,1,277.2716,277.773,277.7731,277.7734,-0.08203125,-0.350260417,0,0,0,,0,109,109,113,1,114,FEM,AGR,150,0,salsa,la,5,,,,
,,,,,,,2c0a0e05575eb676ad08be69,67d30250bc6dd184d4aaad81,67d7f68faa87c890fd7bb651,2025-03-17_04h17.09.330,Tarea de clasificación semántica,2024.2.5,Linux x86_64,59.88023952,,,,,,,,,,,,,,,,,,,,,,,277.7765,279.0601,l,1,0.6179,,0.6179,1,279.0602,279.5606,279.5606,279.5608,-0.08203125,-0.350260417,0,0,0,,0,110,110,457,1,458,FEM,AGR,150,1,mula,la,4,,,,
,,,,,,,2c0a0e05575eb676ad08be69,67d30250bc6dd184d4aaad81,67d7f68faa87c890fd7bb651,2025-03-17_04h17.09.330,Tarea de clasificación semántica,2024.2.5,Linux x86_64,59.88023952,,,,,,,,,,,,,,,,,,,,,,,279.5627,280.8466,s,1,0.6181,,0.6181,1,280.8467,281.3491,281.3492,281.3494,-0.08203125,-0.350260417,0,0,0,,0,111,111,168,1,169,FEM,DIS,150,0,fuente,el,6,,,,
,,,,,,,2c0a0e05575eb676ad08be69,67d30250bc6dd184d4aaad81,67d7f68faa87c890fd7bb651,2025-03-17_04h17.09.330,Tarea de clasificación semántica,2024.2.5,Linux x86_64,59.88023952,,,,,,,,,,,,,,,,,,,,,,,281.3518,282.5688,s,1,0.5449,,0.5449,1,282.569,283.0693,283.0694,283.0696,-0.08203125,-0.350260417,0,0,0,,0,112,112,124,1,125,FEM,DIS,150,0,jaula,el,5,,,,
,,,,,,,2c0a0e05575eb676ad08be69,67d30250bc6dd184d4aaad81,67d7f68faa87c890fd7bb651,2025-03-17_04h17.09.330,Tarea de clasificación semántica,2024.2.5,Linux x86_64,59.88023952,,,,,,,,,,,,,,,,,,,,,,,283.073,284.2217,s,1,0.4876,,0.4876,1,284.2218,284.7239,284.7275,284.7293,-0.08203125,-0.350260417,0,0,0,,0,113,113,146,1,147,FEM,DIS,150,0,manera,el,6,,,,
,,,,,,,2c0a0e05575eb676ad08be69,67d30250bc6dd184d4aaad81,67d7f68faa87c890fd7bb651,2025-03-17_04h17.09.330,Tarea de clasificación semántica,2024.2.5,Linux x86_64,59.88023952,,,,,,,,,,,,,,,,,,,,,,,284.7307,285.8595,s,1,0.4539,,0.4539,1,285.8596,286.3609,286.361,286.3612,-0.08203125,-0.350260417,0,0,0,,0,114,114,299,1,300,MAS,AGR,150,0,papel,el,5,,,,
,,,,,,,2c0a0e05575eb676ad08be69,67d30250bc6dd184d4aaad81,67d7f68faa87c890fd7bb651,2025-03-17_04h17.09.330,Tarea de clasificación semántica,2024.2.5,Linux x86_64,59.88023952,,,,,,,,,,,,,,,,,,,,,,,286.364,287.6516,s,1,0.6091,,0.6091,1,287.6518,288.1479,288.148,288.1482,-0.08203125,-0.350260417,0,0,0,,0,115,115,43,1,44,FEM,AGR,150,0,masa,la,4,,,,
,,,,,,,2c0a0e05575eb676ad08be69,67d30250bc6dd184d4aaad81,67d7f68faa87c890fd7bb651,2025-03-17_04h17.09.330,Tarea de clasificación semántica,2024.2.5,Linux x86_64,59.88023952,,,,,,,,,,,,,,,,,,,,,,,288.1503,289.2338,l,1,0.4264,,0.4264,1,289.2339,289.7362,289.7362,289.7365,-0.08203125,-0.350260417,0,0,0,,0,116,116,436,1,437,FEM,DIS,150,1,mosca,el,5,,,,
,,,,,,,2c0a0e05575eb676ad08be69,67d30250bc6dd184d4aaad81,67d7f68faa87c890fd7bb651,2025-03-17_04h17.09.330,Tarea de clasificación semántica,2024.2.5,Linux x86_64,59.88023952,,,,,,,,,,,,,,,,,,,,,,,289.7393,291.1223,s,1,0.72,,0.72,1,291.1225,291.6239,291.6241,291.6243,-0.08203125,-0.350260417,0,0,0,,0,117,117,68,1,69,FEM,DIS,150,0,grúa,el,4,,,,
,,,,,,,2c0a0e05575eb676ad08be69,67d30250bc6dd184d4aaad81,67d7f68faa87c890fd7bb651,2025-03-17_04h17.09.330,Tarea de clasificación semántica,2024.2.5,Linux x86_64,59.88023952,,,,,,,,,,,,,,,,,,,,,,,291.6272,292.7255,s,1,0.4348,,0.4348,1,292.7256,293.228,293.2281,293.2286,-0.08203125,-0.350260417,0,0,0,,0,118,118,70,1,71,FEM,DIS,150,0,gente,el,5,,,,
,,,,,,,2c0a0e05575eb676ad08be69,67d30250bc6dd184d4aaad81,67d7f68faa87c890fd7bb651,2025-03-17_04h17.09.330,Tarea de clasificación semántica,2024.2.5,Linux x86_64,59.88023952,,,,,,,,,,,,,,,,,,,,,,,293.231,294.3137,s,1,0.4037,,0.4037,1,294.3139,294.8154,294.8181,294.8195,-0.08203125,-0.350260417,0,0,0,,0,119,119,111,1,112,FEM,AGR,150,0,deuda,la,5,,,,
,,,,,,,2c0a0e05575eb676ad08be69,67d30250bc6dd184d4aaad81,67d7f68faa87c890fd7bb651,2025-03-17_04h17.09.330,Tarea de clasificación semántica,2024.2.5,Linux x86_64,59.88023952,,,,,,,,,,,,,,,,,,,,,,,294.8208,295.8168,s,1,0.3284,,0.3284,1,295.817,296.3185,296.3186,296.3188,-0.08203125,-0.350260417,0,0,0,,0,120,120,304,1,305,MAS,DIS,150,0,hueso,la,5,,,,
,,,,,,,2c0a0e05575eb676ad08be69,67d30250bc6dd184d4aaad81,67d7f68faa87c890fd7bb651,2025-03-17_04h17.09.330,Tarea de clasificación semántica,2024.2.5,Linux x86_64,59.88023952,,,,,,,,,,,,,,,,,,,,,,,296.3222,297.3562,s,1,0.3619,,0.3619,1,297.3563,297.855,297.8551,297.8553,-0.08203125,-0.350260417,0,0,0,,0,121,121,388,1,389,MAS,DIS,150,0,rostro,la,6,,,,
,,,,,,,2c0a0e05575eb676ad08be69,67d30250bc6dd184d4aaad81,67d7f68faa87c890fd7bb651,2025-03-17_04h17.09.330,Tarea de clasificación semántica,2024.2.5,Linux x86_64,59.88023952,,,,,,,,,,,,,,,,,,,,,,,297.8573,298.7905,s,0,0.2691,,0.2691,0,298.7932,299.2923,299.2923,299.2926,-0.08203125,-0.350260417,0,0,0,,0,122,122,473,1,474,FEM,AGR,150,1,liebre,la,6,,,,
,,,,,,,2c0a0e05575eb676ad08be69,67d30250bc6dd184d4aaad81,67d7f68faa87c890fd7bb651,2025-03-17_04h17.09.330,Tarea de clasificación semántica,2024.2.5,Linux x86_64,59.88023952,,,,,,,,,,,,,,,,,,,,,,,299.295,300.344,s,1,0.3692,,0.3692,1,300.3467,300.8453,300.8455,300.8456,-0.08203125,-0.350260417,0,0,0,,0,123,123,231,1,232,MAS,AGR,150,0,vaso,el,4,,,,
,,,,,,,2c0a0e05575eb676ad08be69,67d30250bc6dd184d4aaad81,67d7f68faa87c890fd7bb651,2025-03-17_04h17.09.330,Tarea de clasificación semántica,2024.2.5,Linux x86_64,59.88023952,,,,,,,,,,,,,,,,,,,,,,,300.8483,301.8478,s,0,0.3407,,0.3407,0,301.8501,302.3489,302.349,302.3492,-0.08203125,-0.350260417,0,0,0,,0,124,124,472,1,473,FEM,DIS,150,1,paloma,el,6,,,,
,,,,,,,2c0a0e05575eb676ad08be69,67d30250bc6dd184d4aaad81,67d7f68faa87c890fd7bb651,2025-03-17_04h17.09.330,Tarea de clasificación semántica,2024.2.5,Linux x86_64,59.88023952,,,,,,,,,,,,,,,,,,,,,,,302.3517,303.4515,l,1,0.4375,,0.4375,1,303.4541,303.9538,303.957,303.9589,-0.08203125,-0.350260417,0,0,0,,0,125,125,424,1,425,FEM,DIS,150,1,orca,el,4,,,,
,,,,,,,2c0a0e05575eb676ad08be69,67d30250bc6dd184d4aaad81,67d7f68faa87c890fd7bb651,2025-03-17_04h17.09.330,Tarea de clasificación semántica,2024.2.5,Linux x86_64,59.88023952,,,,,,,,,,,,,,,,,,,,,,,303.961,305.1055,s,1,0.469,,0.469,1,305.1056,305.6076,305.6076,305.6079,-0.08203125,-0.350260417,0,0,0,,0,126,126,246,1,247,MAS,DIS,150,0,maíz,la,4,,,,
,,,,,,,2c0a0e05575eb676ad08be69,67d30250bc6dd184d4aaad81,67d7f68faa87c890fd7bb651,2025-03-17_04h17.09.330,Tarea de clasificación semántica,2024.2.5,Linux x86_64,59.88023952,,,,,,,,,,,,,,,,,,,,,,,305.6106,306.7268,s,1,0.4576,,0.4576,1,306.727,307.2274,307.2275,307.2287,-0.08203125,-0.350260417,0,0,0,,0,127,127,112,1,113,FEM,DIS,150,0,ducha,el,5,,,,
,,,,,,,2c0a0e05575eb676ad08be69,67d30250bc6dd184d4aaad81,67d7f68faa87c890fd7bb651,2025-03-17_04h17.09.330,Tarea de clasificación semántica,2024.2.5,Linux x86_64,59.88023952,,,,,,,,,,,,,,,,,,,,,,,307.2309,308.464,s,1,0.5673,,0.5673,1,308.4641,308.9656,308.9657,308.966,-0.08203125,-0.350260417,0,0,0,,0,128,128,368,1,369,MAS,DIS,150,0,estilo,la,6,,,,
,,,,,,,2c0a0e05575eb676ad08be69,67d30250bc6dd184d4aaad81,67d7f68faa87c890fd7bb651,2025-03-17_04h17.09.330,Tarea de clasificación semántica,2024.2.5,Linux x86_64,59.88023952,,,,,,,,,,,,,,,,,,,,,,,308.9695,310.2193,s,1,0.5756,,0.5756,1,310.2195,310.72,310.7201,310.7203,-0.08203125,-0.350260417,0,0,0,,0,129,129,54,1,55,FEM,DIS,150,0,seda,el,4,,,,
,,,,,,,2c0a0e05575eb676ad08be69,67d30250bc6dd184d4aaad81,67d7f68faa87c890fd7bb651,2025-03-17_04h17.09.330,Tarea de clasificación semántica,2024.2.5,Linux x86_64,59.88023952,,,,,,,,,,,,,,,,,,,,,,,310.7234,311.8223,s,1,0.4265,,0.4265,1,311.8224,312.3239,312.327,312.3285,-0.08203125,-0.350260417,0,0,0,,0,130,130,166,1,167,FEM,DIS,150,0,lengua,el,6,,,,
,,,,,,,2c0a0e05575eb676ad08be69,67d30250bc6dd184d4aaad81,67d7f68faa87c890fd7bb651,2025-03-17_04h17.09.330,Tarea de clasificación semántica,2024.2.5,Linux x86_64,59.88023952,,,,,,,,,,,,,,,,,,,,,,,312.3299,313.7775,s,1,0.774,,0.774,1,313.7777,314.2787,314.2788,314.2791,-0.08203125,-0.350260417,0,0,0,,0,131,131,135,1,136,FEM,AGR,150,0,grasa,la,5,,,,
,,,,,,,2c0a0e05575eb676ad08be69,67d30250bc6dd184d4aaad81,67d7f68faa87c890fd7bb651,2025-03-17_04h17.09.330,Tarea de clasificación semántica,2024.2.5,Linux x86_64,59.88023952,,,,,,,,,,,,,,,,,,,,,,,314.2822,315.4646,s,1,0.5212,,0.5212,1,315.4648,315.9655,315.9656,315.9658,-0.08203125,-0.350260417,0,0,0,,0,132,132,188,1,189,FEM,DIS,150,0,parada,el,6,,,,
,,,,,,,2c0a0e05575eb676ad08be69,67d30250bc6dd184d4aaad81,67d7f68faa87c890fd7bb651,2025-03-17_04h17.09.330,Tarea de clasificación semántica,2024.2.5,Linux x86_64,59.88023952,,,,,,,,,,,,,,,,,,,,,,,315.9683,317.2023,l,1,0.5784,,0.5784,1,317.2025,317.7036,317.7037,317.7039,-0.08203125,-0.350260417,0,0,0,,0,133,133,521,1,522,MAS,AGR,150,1,ganso,el,5,,,,
,,,,,,,2c0a0e05575eb676ad08be69,67d30250bc6dd184d4aaad81,67d7f68faa87c890fd7bb651,2025-03-17_04h17.09.330,Tarea de clasificación semántica,2024.2.5,Linux x86_64,59.88023952,,,,,,,,,,,,,,,,,,,,,,,317.7084,318.9728,s,1,0.5889,,0.5889,1,318.973,319.4749,319.475,319.4753,-0.08203125,-0.350260417,0,0,0,,0,134,134,121,1,122,FEM,AGR,150,0,barra,la,5,,,,
,,,,,,,2c0a0e05575eb676ad08be69,67d30250bc6dd184d4aaad81,67d7f68faa87c890fd7bb651,2025-03-17_04h17.09.330,Tarea de clasificación semántica,2024.2.5,Linux x86_64,59.88023952,,,,,,,,,,,,,,,,,,,,,,,319.4784,320.6629,l,1,0.5312,,0.5312,1,320.6632,321.161,321.1611,321.1613,-0.08203125,-0.350260417,0,0,0,,0,135,135,440,1,441,FEM,DIS,150,1,grulla,el,6,,,,
,,,,,,,2c0a0e05575eb676ad08be69,67d30250bc6dd184d4aaad81,67d7f68faa87c890fd7bb651,2025-03-17_04h17.09.330,Tarea de clasificación semántica,2024.2.5,Linux x86_64,59.88023952,,,,,,,,,,,,,,,,,,,,,,,321.164,322.3482,s,1,0.5257,,0.5257,1,322.3483,322.8497,322.8529,322.8543,-0.08203125,-0.350260417,0,0,0,,0,136,136,259,1,260,MAS,AGR,150,0,puño,el,4,,,,
,,,,,,,2c0a0e05575eb676ad08be69,67d30250bc6dd184d4aaad81,67d7f68faa87c890fd7bb651,2025-03-17_04h17.09.330,Tarea de clasificación semántica,2024.2.5,Linux x86_64,59.88023952,,,,,,,,,,,,,,,,,,,,,,,322.856,324.1522,l,1,0.6172,,0.6172,1,324.1524,324.6533,324.6534,324.6537,-0.08203125,-0.350260417,0,0,0,,0,137,137,458,1,459,FEM,DIS,150,1,loba,el,4,,,,
,,,,,,,2c0a0e05575eb676ad08be69,67d30250bc6dd184d4aaad81,67d7f68faa87c890fd7bb651,2025-03-17_04h17.09.330,Tarea de clasificación semántica,2024.2.5,Linux x86_64,59.88023952,,,,,,,,,,,,,,,,,,,,,,,324.6567,325.9736,s,1,0.6549,,0.6549,1,325.9737,326.4746,326.4747,326.4749,-0.08203125,-0.350260417,0,0,0,,0,138,138,143,1,144,FEM,AGR,150,0,esposa,la,6,,,,
,,,,,,,2c0a0e05575eb676ad08be69,67d30250bc6dd184d4aaad81,67d7f68faa87c890fd7bb651,2025-03-17_04h17.09.330,Tarea de clasificación semántica,2024.2.5,Linux x86_64,59.88023952,,,,,,,,,,,,,,,,,,,,,,,326.4778,327.6456,s,1,0.4953,,0.4953,1,327.6458,328.1457,328.1457,328.146,-0.08203125,-0.350260417,0,0,0,,0,139,139,159,1,160,FEM,AGR,150,0,trampa,la,6,,,,
,,,,,,,2c0a0e05575eb676ad08be69,67d30250bc6dd184d4aaad81,67d7f68faa87c890fd7bb651,2025-03-17_04h17.09.330,Tarea de clasificación semántica,2024.2.5,Linux x86_64,59.88023952,,,,,,,,,,,,,,,,,,,,,,,328.1498,329.2974,s,1,0.4736,,0.4736,1,329.2977,329.7995,329.7996,329.7998,-0.08203125,-0.350260417,0,0,0,,0,140,140,11,1,12,FEM,AGR,150,0,boca,la,4,,,,
,,,,,,,2c0a0e05575eb676ad08be69,67d30250bc6dd184d4aaad81,67d7f68faa87c890fd7bb651,2025-03-17_04h17.09.330,Tarea de clasificación semántica,2024.2.5,Linux x86_64,59.88023952,,,,,,,,,,,,,,,,,,,,,,,329.8024,330.8846,l,1,0.4073,,0.4073,1,330.8847,331.3865,331.3897,331.3913,-0.08203125,-0.350260417,0,0,0,,0,141,141,435,1,436,FEM,AGR,150,1,abeja,la,5,,,,
,,,,,,,2c0a0e05575eb676ad08be69,67d30250bc6dd184d4aaad81,67d7f68faa87c890fd7bb651,2025-03-17_04h17.09.330,Tarea de clasificación semántica,2024.2.5,Linux x86_64,59.88023952,,,,,,,,,,,,,,,,,,,,,,,331.393,332.4888,s,1,0.4203,,0.4203,1,332.489,332.9906,332.9907,332.9909,-0.08203125,-0.350260417,0,0,0,,0,142,142,89,1,90,FEM,AGR,150,0,bolsa,la,5,,,,
,,,,,,,2c0a0e05575eb676ad08be69,67d30250bc6dd184d4aaad81,67d7f68faa87c890fd7bb651,2025-03-17_04h17.09.330,Tarea de clasificación semántica,2024.2.5,Linux x86_64,59.88023952,,,,,,,,,,,,,,,,,,,,,,,332.9935,334.0098,s,1,0.3363,,0.3363,1,334.01,334.5101,334.5103,334.5105,-0.08203125,-0.350260417,0,0,0,,0,143,143,377,1,378,MAS,AGR,150,0,seguro,el,6,,,,
,,,,,,,2c0a0e05575eb676ad08be69,67d30250bc6dd184d4aaad81,67d7f68faa87c890fd7bb651,2025-03-17_04h17.09.330,Tarea de clasificación semántica,2024.2.5,Linux x86_64,59.88023952,,,,,,,,,,,,,,,,,,,,,,,334.5136,335.4817,s,1,0.3121,,0.3121,1,335.4818,335.9809,335.981,335.9813,-0.08203125,-0.350260417,0,0,0,,0,144,144,340,1,341,MAS,DIS,150,0,cable,la,5,,,,
,,,,,,,2c0a0e05575eb676ad08be69,67d30250bc6dd184d4aaad81,67d7f68faa87c890fd7bb651,2025-03-17_04h17.09.330,Tarea de clasificación semántica,2024.2.5,Linux x86_64,59.88023952,,,,,,,,,,,,,,,,,,,,,,,335.984,336.7833,s,1,0.1238,,0.1238,1,336.7835,337.2846,337.2847,337.2849,-0.08203125,-0.350260417,0,0,0,,0,145,145,156,1,157,FEM,DIS,150,0,escena,el,6,,,,
,,,,,,,2c0a0e05575eb676ad08be69,67d30250bc6dd184d4aaad81,67d7f68faa87c890fd7bb651,2025-03-17_04h17.09.330,Tarea de clasificación semántica,2024.2.5,Linux x86_64,59.88023952,,,,,,,,,,,,,,,,,,,,,,,337.287,338.0709,s,1,0.1131,,0.1131,1,338.071,338.5709,338.571,338.5713,-0.08203125,-0.350260417,0,0,0,,0,146,146,221,1,222,MAS,AGR,150,0,cine,el,4,,,,
,,,,,,,2c0a0e05575eb676ad08be69,67d30250bc6dd184d4aaad81,67d7f68faa87c890fd7bb651,2025-03-17_04h17.09.330,Tarea de clasificación semántica,2024.2.5,Linux x86_64,59.88023952,,,,,,,,,,,,,,,,,,,,,,,338.5742,339.7903,l,1,0.5368,,0.5368,1,339.7905,340.2907,340.2937,340.2959,-0.08203125,-0.350260417,0,0,0,,0,147,147,535,1,536,MAS,AGR,150,1,piojo,el,5,,,,
,,,,,,,2c0a0e05575eb676ad08be69,67d30250bc6dd184d4aaad81,67d7f68faa87c890fd7bb651,2025-03-17_04h17.09.330,Tarea de clasificación semántica,2024.2.5,Linux x86_64,59.88023952,,,,,,,,,,,,,,,,,,,,,,,340.2974,341.5613,s,1,0.5956,,0.5956,1,341.5615,342.0626,342.0626,342.0629,-0.08203125,-0.350260417,0,0,0,,0,148,148,327,1,328,MAS,AGR,150,0,truco,el,5,,,,
,,,,,,,2c0a0e05575eb676ad08be69,67d30250bc6dd184d4aaad81,67d7f68faa87c890fd7bb651,2025-03-17_04h17.09.330,Tarea de clasificación semántica,2024.2.5,Linux x86_64,59.88023952,,,,,,,,,,,,,,,,,,,,,,,342.0662,343.1482,s,1,0.4046,,0.4046,1,343.1483,343.65,343.6501,343.6504,-0.08203125,-0.350260417,0,0,0,,0,149,149,75,1,76,FEM,AGR,150,0,calle,la,5,,,,
,,,,,,,2c0a0e05575eb676ad08be69,67d30250bc6dd184d4aaad81,67d7f68faa87c890fd7bb651,2025-03-17_04h17.09.330,Tarea de clasificación semántica,2024.2.5,Linux x86_64,59.88023952,,,,,,,,,,,,,,,,,,,,,,,343.6537,344.6699,s,0,0.335,,0.335,0,344.6746,345.1694,345.1695,345.1696,-0.08203125,-0.350260417,0,0,0,,0,150,150,441,1,442,FEM,AGR,150,1,gacela,la,6,,,,
,,,,,,,2c0a0e05575eb676ad08be69,67d30250bc6dd184d4aaad81,67d7f68faa87c890fd7bb651,2025-03-17_04h17.09.330,Tarea de clasificación semántica,2024.2.5,Linux x86_64,59.88023952,,,,,,,,,,,,,,,,,,,,,,,345.1729,346.2747,s,1,0.447,,0.447,1,346.2766,346.7733,346.7734,346.7736,-0.08203125,-0.350260417,0,0,0,,0,151,151,183,1,184,FEM,AGR,150,0,alarma,la,6,,,,
,,,,,,,2c0a0e05575eb676ad08be69,67d30250bc6dd184d4aaad81,67d7f68faa87c890fd7bb651,2025-03-17_04h17.09.330,Tarea de clasificación semántica,2024.2.5,Linux x86_64,59.88023952,,,,,,,,,,,,,,,,,,,,,,,346.7772,347.8261,s,1,0.3852,,0.3852,1,347.8263,348.327,348.3308,348.3323,-0.08203125,-0.350260417,0,0,0,,0,152,152,198,1,199,FEM,DIS,150,0,jugada,el,6,,,,
,,,,,,,2c0a0e05575eb676ad08be69,67d30250bc6dd184d4aaad81,67d7f68faa87c890fd7bb651,2025-03-17_04h17.09.330,Tarea de clasificación semántica,2024.2.5,Linux x86_64,59.88023952,,,,,,,,,,,,,,,,,,,,,,,348.3336,349.5631,l,1,0.5595,,0.5595,1,349.5635,350.0651,350.0652,350.0655,-0.08203125,-0.350260417,0,0,0,,0,153,153,505,1,506,MAS,AGR,150,1,pulpo,el,5,,,,
,,,,,,,2c0a0e05575eb676ad08be69,67d30250bc6dd184d4aaad81,67d7f68faa87c890fd7bb651,2025-03-17_04h17.09.330,Tarea de clasificación semántica,2024.2.5,Linux x86_64,59.88023952,,,,,,,,,,,,,,,,,,,,,,,350.0684,351.1504,s,1,0.403,,0.403,1,351.1505,351.6525,351.6526,351.6528,-0.08203125,-0.350260417,0,0,0,,0,154,154,250,1,251,MAS,DIS,150,0,giro,la,4,,,,
,,,,,,,2c0a0e05575eb676ad08be69,67d30250bc6dd184d4aaad81,67d7f68faa87c890fd7bb651,2025-03-17_04h17.09.330,Tarea de clasificación semántica,2024.2.5,Linux x86_64,59.88023952,,,,,,,,,,,,,,,,,,,,,,,351.6576,352.7556,s,1,0.446,,0.446,1,352.7565,353.2561,353.2562,353.2564,-0.08203125,-0.350260417,0,0,0,,0,155,155,82,1,83,FEM,DIS,150,0,línea,el,5,,,,
,,,,,,,2c0a0e05575eb676ad08be69,67d30250bc6dd184d4aaad81,67d7f68faa87c890fd7bb651,2025-03-17_04h17.09.330,Tarea de clasificación semántica,2024.2.5,Linux x86_64,59.88023952,,,,,,,,,,,,,,,,,,,,,,,353.2589,354.2611,s,1,0.3457,,0.3457,1,354.2613,354.7606,354.7607,354.7609,-0.08203125,-0.350260417,0,0,0,,0,156,156,313,1,314,MAS,AGR,150,0,golpe,el,5,,,,
,,,,,,,2c0a0e05575eb676ad08be69,67d30250bc6dd184d4aaad81,67d7f68faa87c890fd7bb651,2025-03-17_04h17.09.330,Tarea de clasificación semántica,2024.2.5,Linux x86_64,59.88023952,,,,,,,,,,,,,,,,,,,,,,,354.7635,355.8811,s,1,0.4467,,0.4467,1,355.8813,356.3807,356.3808,356.3811,-0.08203125,-0.350260417,0,0,0,,0,157,157,335,1,336,MAS,AGR,150,0,reino,el,5,,,,
,,,,,,,2c0a0e05575eb676ad08be69,67d30250bc6dd184d4aaad81,67d7f68faa87c890fd7bb651,2025-03-17_04h17.09.330,Tarea de clasificación semántica,2024.2.5,Linux x86_64,59.88023952,,,,,,,,,,,,,,,,,,,,,,,356.3835,357.4164,s,1,0.3661,,0.3661,1,357.4164,357.9176,357.9213,357.9225,-0.08203125,-0.350260417,0,0,0,,0,158,158,179,1,180,FEM,AGR,150,0,sombra,la,6,,,,
,,,,,,,2c0a0e05575eb676ad08be69,67d30250bc6dd184d4aaad81,67d7f68faa87c890fd7bb651,2025-03-17_04h17.09.330,Tarea de clasificación semántica,2024.2.5,Linux x86_64,59.88023952,,,,,,,,,,,,,,,,,,,,,,,357.9239,358.9028,s,1,0.3003,,0.3003,1,358.903,359.4047,359.4048,359.405,-0.08203125,-0.350260417,0,0,0,,0,159,159,155,1,156,FEM,AGR,150,0,locura,la,6,,,,
,,,,,,,2c0a0e05575eb676ad08be69,67d30250bc6dd184d4aaad81,67d7f68faa87c890fd7bb651,2025-03-17_04h17.09.330,Tarea de clasificación semántica,2024.2.5,Linux x86_64,59.88023952,,,,,,,,,,,,,,,,,,,,,,,359.4091,360.6416,l,1,0.5693,,0.5693,1,360.6417,361.1415,361.1417,361.1419,-0.08203125,-0.350260417,0,0,0,,0,160,160,421,1,422,FEM,AGR,150,1,vaca,la,4,,,,
,,,,,,,2c0a0e05575eb676ad08be69,67d30250bc6dd184d4aaad81,67d7f68faa87c890fd7bb651,2025-03-17_04h17.09.330,Tarea de clasificación semántica,2024.2.5,Linux x86_64,59.88023952,,,,,,,,,,,,,,,,,,,,,,,361.1444,362.311,s,1,0.5053,,0.5053,1,362.3112,362.8123,362.8124,362.8126,-0.08203125,-0.350260417,0,0,0,,0,161,161,203,1,204,FEM,AGR,150,0,toalla,la,6,,,,
,,,,,,,2c0a0e05575eb676ad08be69,67d30250bc6dd184d4aaad81,67d7f68faa87c890fd7bb651,2025-03-17_04h17.09.330,Tarea de clasificación semántica,2024.2.5,Linux x86_64,59.88023952,,,,,,,,,,,,,,,,,,,,,,,362.8151,363.7671,s,1,0.2943,,0.2943,1,363.7672,364.2664,364.2665,364.2666,-0.08203125,-0.350260417,0,0,0,,0,162,162,83,1,84,FEM,AGR,150,0,broma,la,5,,,,
,,,,,,,2c0a0e05575eb676ad08be69,67d30250bc6dd184d4aaad81,67d7f68faa87c890fd7bb651,2025-03-17_04h17.09.330,Tarea de clasificación semántica,2024.2.5,Linux x86_64,59.88023952,,,,,,,,,,,,,,,,,,,,,,,364.2688,365.2344,s,0,0.2852,,0.2852,0,365.2376,365.7363,365.7363,365.7364,-0.08203125,-0.350260417,0,0,0,,0,163,163,442,1,443,FEM,DIS,150,1,perdiz,el,6,,,,
,,,,,,,2c0a0e05575eb676ad08be69,67d30250bc6dd184d4aaad81,67d7f68faa87c890fd7bb651,2025-03-17_04h17.09.330,Tarea de clasificación semántica,2024.2.5,Linux x86_64,59.88023952,,,,,,,,,,,,,,,,,,,,,,,365.7402,366.9053,s,1,0.4862,,0.4862,1,366.9074,367.4067,367.4109,367.4123,-0.08203125,-0.350260417,0,0,0,,0,164,164,352,1,353,MAS,DIS,150,0,pueblo,la,6,,,,
,,,,,,,2c0a0e05575eb676ad08be69,67d30250bc6dd184d4aaad81,67d7f68faa87c890fd7bb651,2025-03-17_04h17.09.330,Tarea de clasificación semántica,2024.2.5,Linux x86_64,59.88023952,,,,,,,,,,,,,,,,,,,,,,,367.4138,368.4095,s,1,0.3215,,0.3215,1,368.4098,368.9099,368.9101,368.9103,-0.08203125,-0.350260417,0,0,0,,0,165,165,10,1,11,FEM,DIS,150,0,ropa,el,4,,,,
,,,,,,,2c0a0e05575eb676ad08be69,67d30250bc6dd184d4aaad81,67d7f68faa87c890fd7bb651,2025-03-17_04h17.09.330,Tarea de clasificación semántica,2024.2.5,Linux x86_64,59.88023952,,,,,,,,,,,,,,,,,,,,,,,368.9128,369.9127,s,1,0.3368,,0.3368,1,369.9129,370.4142,370.4143,370.4144,-0.08203125,-0.350260417,0,0,0,,0,166,166,202,1,203,FEM,DIS,150,0,niebla,el,6,,,,
,,,,,,,2c0a0e05575eb676ad08be69,67d30250bc6dd184d4aaad81,67d7f68faa87c890fd7bb651,2025-03-17_04h17.09.330,Tarea de clasificación semántica,2024.2.5,Linux x86_64,59.88023952,,,,,,,,,,,,,,,,,,,,,,,370.4165,371.4167,s,1,0.3372,,0.3372,1,371.4167,371.9173,371.9174,371.9177,-0.08203125,-0.350260417,0,0,0,,0,167,167,222,1,223,MAS,DIS,150,0,taxi,la,4,,,,
,,,,,,,2c0a0e05575eb676ad08be69,67d30250bc6dd184d4aaad81,67d7f68faa87c890fd7bb651,2025-03-17_04h17.09.330,Tarea de clasificación semántica,2024.2.5,Linux x86_64,59.88023952,,,,,,,,,,,,,,,,,,,,,,,371.9202,373.021,s,1,0.4428,,0.4428,1,373.0212,373.5218,373.5219,373.5222,-0.08203125,-0.350260417,0,0,0,,0,168,168,337,1,338,MAS,AGR,150,0,grado,el,5,,,,
,,,,,,,2c0a0e05575eb676ad08be69,67d30250bc6dd184d4aaad81,67d7f68faa87c890fd7bb651,2025-03-17_04h17.09.330,Tarea de clasificación semántica,2024.2.5,Linux x86_64,59.88023952,,,,,,,,,,,,,,,,,,,,,,,373.5249,374.7076,l,1,0.5019,,0.5019,1,374.7077,375.2091,375.2166,375.2186,-0.08203125,-0.350260417,0,0,0,,0,169,169,455,1,456,FEM,AGR,150,1,rata,la,4,,,,
,,,,,,,2c0a0e05575eb676ad08be69,67d30250bc6dd184d4aaad81,67d7f68faa87c890fd7bb651,2025-03-17_04h17.09.330,Tarea de clasificación semántica,2024.2.5,Linux x86_64,59.88023952,,,,,,,,,,,,,,,,,,,,,,,375.221,376.5289,l,1,0.6388,,0.6388,1,376.529,377.0305,377.0306,377.031,-0.08203125,-0.350260417,0,0,0,,0,170,170,448,1,449,FEM,DIS,150,1,gamba,el,5,,,,
,,,,,,,2c0a0e05575eb676ad08be69,67d30250bc6dd184d4aaad81,67d7f68faa87c890fd7bb651,2025-03-17_04h17.09.330,Tarea de clasificación semántica,2024.2.5,Linux x86_64,59.88023952,,,,,,,,,,,,,,,,,,,,,,,377.0343,378.1331,s,1,0.4275,,0.4275,1,378.1333,378.6339,378.6339,378.6343,-0.08203125,-0.350260417,0,0,0,,0,171,171,284,1,285,MAS,DIS,150,0,libro,la,5,,,,
,,,,,,,2c0a0e05575eb676ad08be69,67d30250bc6dd184d4aaad81,67d7f68faa87c890fd7bb651,2025-03-17_04h17.09.330,Tarea de clasificación semántica,2024.2.5,Linux x86_64,59.88023952,,,,,,,,,,,,,,,,,,,,,,,378.6368,379.887,s,1,0.5846,,0.5846,1,379.8872,380.3877,380.3878,380.388,-0.08203125,-0.350260417,0,0,0,,0,172,172,9,1,10,FEM,AGR,150,0,niña,la,4,,,,
,,,,,,,2c0a0e05575eb676ad08be69,67d30250bc6dd184d4aaad81,67d7f68faa87c890fd7bb651,2025-03-17_04h17.09.330,Tarea de clasificación semántica,2024.2.5,Linux x86_64,59.88023952,,,,,,,,,,,,,,,,,,,,,,,380.3905,381.5747,s,1,0.5299,,0.5299,1,381.5749,382.0766,382.0766,382.0769,-0.08203125,-0.350260417,0,0,0,,0,173,173,98,1,99,FEM,DIS,150,0,salud,el,5,,,,
,,,,,,,2c0a0e05575eb676ad08be69,67d30250bc6dd184d4aaad81,67d7f68faa87c890fd7bb651,2025-03-17_04h17.09.330,Tarea de clasificación semántica,2024.2.5,Linux x86_64,59.88023952,,,,,,,,,,,,,,,,,,,,,,,382.0797,383.1614,s,1,0.4016,,0.4016,1,383.1615,383.6624,383.6627,383.6629,-0.08203125,-0.350260417,0,0,0,,0,174,174,328,1,329,MAS,DIS,150,0,primo,la,5,,,,
,,,,,,,2c0a0e05575eb676ad08be69,67d30250bc6dd184d4aaad81,67d7f68faa87c890fd7bb651,2025-03-17_04h17.09.330,Tarea de clasificación semántica,2024.2.5,Linux x86_64,59.88023952,,,,,,,,,,,,,,,,,,,,,,,383.6657,384.9329,l,1,0.6096,,0.6096,1,384.933,385.4343,385.4384,385.4401,-0.08203125,-0.350260417,0,0,0,,0,175,175,428,1,429,FEM,DIS,150,1,cobra,el,5,,,,
,,,,,,,2c0a0e05575eb676ad08be69,67d30250bc6dd184d4aaad81,67d7f68faa87c890fd7bb651,2025-03-17_04h17.09.330,Tarea de clasificación semántica,2024.2.5,Linux x86_64,59.88023952,,,,,,,,,,,,,,,,,,,,,,,385.442,386.4698,s,1,0.3572,,0.3572,1,386.4699,386.9703,386.9705,386.9706,-0.08203125,-0.350260417,0,0,0,,0,176,176,402,1,403,MAS,DIS,150,0,helado,la,6,,,,
,,,,,,,2c0a0e05575eb676ad08be69,67d30250bc6dd184d4aaad81,67d7f68faa87c890fd7bb651,2025-03-17_04h17.09.330,Tarea de clasificación semántica,2024.2.5,Linux x86_64,59.88023952,,,,,,,,,,,,,,,,,,,,,,,386.973,388.0071,s,0,0.3728,,0.3728,0,388.0101,388.5074,388.5074,388.5078,-0.08203125,-0.350260417,0,0,0,,0,177,177,425,1,426,FEM,AGR,150,1,pulga,la,5,,,,
,,,,,,,2c0a0e05575eb676ad08be69,67d30250bc6dd184d4aaad81,67d7f68faa87c890fd7bb651,2025-03-17_04h17.09.330,Tarea de clasificación semántica,2024.2.5,Linux x86_64,59.88023952,,,,,,,,,,,,,,,,,,,,,,,388.5107,389.6275,s,1,0.4581,,0.4581,1,389.6293,390.1281,390.1282,390.1284,-0.08203125,-0.350260417,0,0,0,,0,178,178,104,1,105,FEM,DIS,150,0,plata,el,5,,,,
,,,,,,,2c0a0e05575eb676ad08be69,67d30250bc6dd184d4aaad81,67d7f68faa87c890fd7bb651,2025-03-17_04h17.09.330,Tarea de clasificación semántica,2024.2.5,Linux x86_64,59.88023952,,,,,,,,,,,,,,,,,,,,,,,390.1314,391.5316,s,1,0.7379,,0.7379,1,391.5317,392.0333,392.0334,392.0336,-0.08203125,-0.350260417,0,0,0,,0,179,179,396,1,397,MAS,DIS,150,0,jurado,la,6,,,,
,,,,,,,2c0a0e05575eb676ad08be69,67d30250bc6dd184d4aaad81,67d7f68faa87c890fd7bb651,2025-03-17_04h17.09.330,Tarea de clasificación semántica,2024.2.5,Linux x86_64,59.88023952,,,,,,,,,,,,,,,,,,,,,,,392.0358,393.1027,s,1,0.3863,,0.3863,1,393.1029,393.6039,393.6073,393.6091,-0.08203125,-0.350260417,0,0,0,,0,180,180,253,1,254,MAS,AGR,150,0,cubo,el,4,,,,
,,,,,,,2c0a0e05575eb676ad08be69,67d30250bc6dd184d4aaad81,67d7f68faa87c890fd7bb651,2025-03-17_04h17.09.330,Tarea de clasificación semántica,2024.2.5,Linux x86_64,59.88023952,,,,,,,,,,,,,,,,,,,,,,,393.6117,394.7917,l,1,0.5125,,0.5125,1,394.7919,395.2916,395.2917,395.2919,-0.08203125,-0.350260417,0,0,0,,0,181,181,446,1,447,FEM,DIS,150,1,avispa,el,6,,,,
,,,,,,,2c0a0e05575eb676ad08be69,67d30250bc6dd184d4aaad81,67d7f68faa87c890fd7bb651,2025-03-17_04h17.09.330,Tarea de clasificación semántica,2024.2.5,Linux x86_64,59.88023952,,,,,,,,,,,,,,,,,,,,,,,395.2944,396.4279,s,1,0.4752,,0.4752,1,396.4281,396.9284,396.9285,396.9287,-0.08203125,-0.350260417,0,0,0,,0,182,182,258,1,259,MAS,DIS,150,0,mito,la,4,,,,
,,,,,,,2c0a0e05575eb676ad08be69,67d30250bc6dd184d4aaad81,67d7f68faa87c890fd7bb651,2025-03-17_04h17.09.330,Tarea de clasificación semántica,2024.2.5,Linux x86_64,59.88023952,,,,,,,,,,,,,,,,,,,,,,,396.9311,398.1345,s,1,0.547,,0.547,1,398.1346,398.6323,398.6324,398.6326,-0.08203125,-0.350260417,0,0,0,,0,183,183,273,1,274,MAS,AGR,150,0,mozo,el,4,,,,
,,,,,,,2c0a0e05575eb676ad08be69,67d30250bc6dd184d4aaad81,67d7f68faa87c890fd7bb651,2025-03-17_04h17.09.330,Tarea de clasificación semántica,2024.2.5,Linux x86_64,59.88023952,,,,,,,,,,,,,,,,,,,,,,,398.6356,399.8027,l,1,0.4865,,0.4865,1,399.8029,400.3043,400.3044,400.3046,-0.08203125,-0.350260417,0,0,0,,0,184,184,491,1,492,MAS,AGR,150,1,león,el,4,,,,
,,,,,,,2c0a0e05575eb676ad08be69,67d30250bc6dd184d4aaad81,67d7f68faa87c890fd7bb651,2025-03-17_04h17.09.330,Tarea de clasificación semántica,2024.2.5,Linux x86_64,59.88023952,,,,,,,,,,,,,,,,,,,,,,,400.3072,401.6071,l,1,0.6207,,0.6207,1,401.6072,402.1075,402.1075,544.6535,-0.08203125,-0.350260417,0,0,0,space,0,185,185,546,1,547,MAS,DIS,150,1,gorila,la,6,142.5107,,,
,,,,,,,2c0a0e05575eb676ad08be69,67d30250bc6dd184d4aaad81,67d7f68faa87c890fd7bb651,2025-03-17_04h17.09.330,Tarea de clasificación semántica,2024.2.5,Linux x86_64,59.88023952,,,,,,,,,,,,,,,,,,,,,,,544.657,546.0231,s,1,0.6868,,0.6868,1,546.0233,546.524,546.5273,546.5287,-0.08203125,-0.350260417,0,0,0,,0,186,186,278,1,279,MAS,DIS,150,0,chico,la,5,,,,
,,,,,,,2c0a0e05575eb676ad08be69,67d30250bc6dd184d4aaad81,67d7f68faa87c890fd7bb651,2025-03-17_04h17.09.330,Tarea de clasificación semántica,2024.2.5,Linux x86_64,59.88023952,,,,,,,,,,,,,,,,,,,,,,,546.5308,547.6114,s,1,0.4053,,0.4053,1,547.6116,548.1105,548.1106,548.1108,-0.08203125,-0.350260417,0,0,0,,0,187,187,393,1,394,MAS,AGR,150,0,abrigo,el,6,,,,
,,,,,,,2c0a0e05575eb676ad08be69,67d30250bc6dd184d4aaad81,67d7f68faa87c890fd7bb651,2025-03-17_04h17.09.330,Tarea de clasificación semántica,2024.2.5,Linux x86_64,59.88023952,,,,,,,,,,,,,,,,,,,,,,,548.114,549.3136,s,1,0.5355,,0.5355,1,549.3138,549.8158,549.8159,549.8164,-0.08203125,-0.350260417,0,0,0,,0,188,188,408,1,409,MAS,DIS,150,0,océano,la,6,,,,
,,,,,,,2c0a0e05575eb676ad08be69,67d30250bc6dd184d4aaad81,67d7f68faa87c890fd7bb651,2025-03-17_04h17.09.330,Tarea de clasificación semántica,2024.2.5,Linux x86_64,59.88023952,,,,,,,,,,,,,,,,,,,,,,,549.8184,550.8024,s,1,0.3272,,0.3272,1,550.8025,551.3025,551.3027,551.3029,-0.08203125,-0.350260417,0,0,0,,0,189,189,150,1,151,FEM,DIS,150,0,tierra,el,6,,,,
,,,,,,,2c0a0e05575eb676ad08be69,67d30250bc6dd184d4aaad81,67d7f68faa87c890fd7bb651,2025-03-17_04h17.09.330,Tarea de clasificación semántica,2024.2.5,Linux x86_64,59.88023952,,,,,,,,,,,,,,,,,,,,,,,551.306,552.2707,s,1,0.3023,,0.3023,1,552.2708,552.7727,552.773,552.7732,-0.08203125,-0.350260417,0,0,0,,0,190,190,314,1,315,MAS,DIS,150,0,norte,la,5,,,,
,,,,,,,2c0a0e05575eb676ad08be69,67d30250bc6dd184d4aaad81,67d7f68faa87c890fd7bb651,2025-03-17_04h17.09.330,Tarea de clasificación semántica,2024.2.5,Linux x86_64,59.88023952,,,,,,,,,,,,,,,,,,,,,,,552.7758,553.6937,s,1,0.2464,,0.2464,1,553.6942,554.1927,554.1959,554.1974,-0.08203125,-0.350260417,0,0,0,,0,191,191,212,1,213,MAS,DIS,150,0,plan,la,4,,,,
,,,,,,,2c0a0e05575eb676ad08be69,67d30250bc6dd184d4aaad81,67d7f68faa87c890fd7bb651,2025-03-17_04h17.09.330,Tarea de clasificación semántica,2024.2.5,Linux x86_64,59.88023952,,,,,,,,,,,,,,,,,,,,,,,554.1991,555.095,s,1,0.2197,,0.2197,1,555.0952,555.5965,555.5966,555.5968,-0.08203125,-0.350260417,0,0,0,,0,192,192,272,1,273,MAS,DIS,150,0,nudo,la,4,,,,
,,,,,,,2c0a0e05575eb676ad08be69,67d30250bc6dd184d4aaad81,67d7f68faa87c890fd7bb651,2025-03-17_04h17.09.330,Tarea de clasificación semántica,2024.2.5,Linux x86_64,59.88023952,,,,,,,,,,,,,,,,,,,,,,,555.5994,556.4988,s,1,0.2231,,0.2231,1,556.4989,557.0003,557.0004,557.0006,-0.08203125,-0.350260417,0,0,0,,0,193,193,237,1,238,MAS,AGR,150,0,palo,el,4,,,,
,,,,,,,2c0a0e05575eb676ad08be69,67d30250bc6dd184d4aaad81,67d7f68faa87c890fd7bb651,2025-03-17_04h17.09.330,Tarea de clasificación semántica,2024.2.5,Linux x86_64,59.88023952,,,,,,,,,,,,,,,,,,,,,,,557.0028,557.9522,s,1,0.2702,,0.2702,1,557.9523,558.453,558.4531,558.4534,-0.08203125,-0.350260417,0,0,0,,0,194,194,289,1,290,MAS,AGR,150,0,sueño,el,5,,,,
,,,,,,,2c0a0e05575eb676ad08be69,67d30250bc6dd184d4aaad81,67d7f68faa87c890fd7bb651,2025-03-17_04h17.09.330,Tarea de clasificación semántica,2024.2.5,Linux x86_64,59.88023952,,,,,,,,,,,,,,,,,,,,,,,558.4559,559.3729,s,1,0.2603,,0.2603,1,559.373,559.8733,559.8733,559.8735,-0.08203125,-0.350260417,0,0,0,,0,195,195,174,1,175,FEM,DIS,150,0,cadena,el,6,,,,
,,,,,,,2c0a0e05575eb676ad08be69,67d30250bc6dd184d4aaad81,67d7f68faa87c890fd7bb651,2025-03-17_04h17.09.330,Tarea de clasificación semántica,2024.2.5,Linux x86_64,59.88023952,,,,,,,,,,,,,,,,,,,,,,,559.8763,560.8085,s,1,0.2585,,0.2585,1,560.8088,561.31,561.3102,561.3112,-0.08203125,-0.350260417,0,0,0,,0,196,196,310,1,311,MAS,DIS,150,0,vuelo,la,5,,,,
,,,,,,,2c0a0e05575eb676ad08be69,67d30250bc6dd184d4aaad81,67d7f68faa87c890fd7bb651,2025-03-17_04h17.09.330,Tarea de clasificación semántica,2024.2.5,Linux x86_64,59.88023952,,,,,,,,,,,,,,,,,,,,,,,561.313,562.297,s,0,0.3128,,0.3128,0,562.3006,562.7969,562.8,562.8013,-0.08203125,-0.350260417,0,0,0,,0,197,197,481,1,482,FEM,AGR,150,1,avispa,la,6,,,,
,,,,,,,2c0a0e05575eb676ad08be69,67d30250bc6dd184d4aaad81,67d7f68faa87c890fd7bb651,2025-03-17_04h17.09.330,Tarea de clasificación semántica,2024.2.5,Linux x86_64,59.88023952,,,,,,,,,,,,,,,,,,,,,,,562.8028,563.9498,l,1,0.472,,0.472,1,563.9532,564.4515,564.4516,564.4518,-0.08203125,-0.350260417,0,0,0,,0,198,198,527,1,528,MAS,AGR,150,1,pato,el,4,,,,
,,,,,,,2c0a0e05575eb676ad08be69,67d30250bc6dd184d4aaad81,67d7f68faa87c890fd7bb651,2025-03-17_04h17.09.330,Tarea de clasificación semántica,2024.2.5,Linux x86_64,59.88023952,,,,,,,,,,,,,,,,,,,,,,,564.4543,565.6372,s,1,0.5105,,0.5105,1,565.6374,566.1381,566.1382,566.1384,-0.08203125,-0.350260417,0,0,0,,0,199,199,329,1,330,MAS,AGR,150,0,queso,el,5,,,,
,,,,,,,2c0a0e05575eb676ad08be69,67d30250bc6dd184d4aaad81,67d7f68faa87c890fd7bb651,2025-03-17_04h17.09.330,Tarea de clasificación semántica,2024.2.5,Linux x86_64,59.88023952,,,,,,,,,,,,,,,,,,,,,,,566.1414,567.2247,l,1,0.4221,,0.4221,1,567.2248,567.7265,567.7265,567.7267,-0.08203125,-0.350260417,0,0,0,,0,200,200,550,1,551,MAS,DIS,150,1,ratón,la,5,,,,
,,,,,,,2c0a0e05575eb676ad08be69,67d30250bc6dd184d4aaad81,67d7f68faa87c890fd7bb651,2025-03-17_04h17.09.330,Tarea de clasificación semántica,2024.2.5,Linux x86_64,59.88023952,,,,,,,,,,,,,,,,,,,,,,,567.7317,568.8274,s,1,0.4188,,0.4188,1,568.8275,569.3298,569.3298,569.3302,-0.08203125,-0.350260417,0,0,0,,0,201,201,180,1,181,FEM,DIS,150,0,página,el,6,,,,
,,,,,,,2c0a0e05575eb676ad08be69,67d30250bc6dd184d4aaad81,67d7f68faa87c890fd7bb651,2025-03-17_04h17.09.330,Tarea de clasificación semántica,2024.2.5,Linux x86_64,59.88023952,,,,,,,,,,,,,,,,,,,,,,,569.3327,570.4819,l,1,0.4845,,0.4845,1,570.482,570.984,570.9866,570.9878,-0.08203125,-0.350260417,0,0,0,,0,202,202,456,1,457,FEM,DIS,150,1,vaca,el,4,,,,
,,,,,,,2c0a0e05575eb676ad08be69,67d30250bc6dd184d4aaad81,67d7f68faa87c890fd7bb651,2025-03-17_04h17.09.330,Tarea de clasificación semántica,2024.2.5,Linux x86_64,59.88023952,,,,,,,,,,,,,,,,,,,,,,,570.9895,572.0865,l,1,0.4182,,0.4182,1,572.0867,572.5869,572.587,572.5872,-0.08203125,-0.350260417,0,0,0,,0,203,203,453,1,454,FEM,AGR,150,1,rana,la,4,,,,
,,,,,,,2c0a0e05575eb676ad08be69,67d30250bc6dd184d4aaad81,67d7f68faa87c890fd7bb651,2025-03-17_04h17.09.330,Tarea de clasificación semántica,2024.2.5,Linux x86_64,59.88023952,,,,,,,,,,,,,,,,,,,,,,,572.5898,573.7736,s,1,0.5196,,0.5196,1,573.7737,574.2741,574.2742,574.2745,-0.08203125,-0.350260417,0,0,0,,0,204,204,23,1,24,FEM,AGR,150,0,isla,la,4,,,,
,,,,,,,2c0a0e05575eb676ad08be69,67d30250bc6dd184d4aaad81,67d7f68faa87c890fd7bb651,2025-03-17_04h17.09.330,Tarea de clasificación semántica,2024.2.5,Linux x86_64,59.88023952,,,,,,,,,,,,,,,,,,,,,,,574.2776,575.427,s,1,0.4763,,0.4763,1,575.4273,575.9287,575.9288,575.9291,-0.08203125,-0.350260417,0,0,0,,0,205,205,25,1,26,FEM,AGR,150,0,dama,la,4,,,,
,,,,,,,2c0a0e05575eb676ad08be69,67d30250bc6dd184d4aaad81,67d7f68faa87c890fd7bb651,2025-03-17_04h17.09.330,Tarea de clasificación semántica,2024.2.5,Linux x86_64,59.88023952,,,,,,,,,,,,,,,,,,,,,,,575.9319,576.914,s,1,0.3198,,0.3198,1,576.9141,577.4148,577.4149,577.4153,-0.08203125,-0.350260417,0,0,0,,0,206,206,190,1,191,FEM,DIS,150,0,piedad,el,6,,,,
,,,,,,,2c0a0e05575eb676ad08be69,67d30250bc6dd184d4aaad81,67d7f68faa87c890fd7bb651,2025-03-17_04h17.09.330,Tarea de clasificación semántica,2024.2.5,Linux x86_64,59.88023952,,,,,,,,,,,,,,,,,,,,,,,577.4178,578.3342,s,0,0.2555,,0.2555,0,578.3373,578.8361,578.8363,578.8365,-0.08203125,-0.350260417,0,0,0,,0,207,207,468,1,469,FEM,DIS,150,1,yegua,el,5,,,,
,,,,,,,2c0a0e05575eb676ad08be69,67d30250bc6dd184d4aaad81,67d7f68faa87c890fd7bb651,2025-03-17_04h17.09.330,Tarea de clasificación semántica,2024.2.5,Linux x86_64,59.88023952,,,,,,,,,,,,,,,,,,,,,,,578.839,579.9076,s,1,0.3974,,0.3974,1,579.9096,580.4065,580.4107,580.412,-0.08203125,-0.350260417,0,0,0,,0,208,208,62,1,63,FEM,DIS,150,0,rama,el,4,,,,
,,,,,,,2c0a0e05575eb676ad08be69,67d30250bc6dd184d4aaad81,67d7f68faa87c890fd7bb651,2025-03-17_04h17.09.330,Tarea de clasificación semántica,2024.2.5,Linux x86_64,59.88023952,,,,,,,,,,,,,,,,,,,,,,,580.4135,581.5757,s,1,0.493,,0.493,1,581.576,582.0764,582.0766,582.0767,-0.08203125,-0.350260417,0,0,0,,0,209,209,275,1,276,MAS,AGR,150,0,mundo,el,5,,,,
,,,,,,,2c0a0e05575eb676ad08be69,67d30250bc6dd184d4aaad81,67d7f68faa87c890fd7bb651,2025-03-17_04h17.09.330,Tarea de clasificación semántica,2024.2.5,Linux x86_64,59.88023952,,,,,,,,,,,,,,,,,,,,,,,582.0798,583.0456,s,1,0.3079,,0.3079,1,583.0458,583.5477,583.5478,583.5489,-0.08203125,-0.350260417,0,0,0,,0,210,210,69,1,70,FEM,AGR,150,0,noche,la,5,,,,
,,,,,,,2c0a0e05575eb676ad08be69,67d30250bc6dd184d4aaad81,67d7f68faa87c890fd7bb651,2025-03-17_04h17.09.330,Tarea de clasificación semántica,2024.2.5,Linux x86_64,59.88023952,,,,,,,,,,,,,,,,,,,,,,,583.5513,584.5832,s,1,0.3515,,0.3515,1,584.5834,585.085,585.0851,585.0854,-0.08203125,-0.350260417,0,0,0,,0,211,211,18,1,19,FEM,DIS,150,0,sala,el,4,,,,
,,,,,,,2c0a0e05575eb676ad08be69,67d30250bc6dd184d4aaad81,67d7f68faa87c890fd7bb651,2025-03-17_04h17.09.330,Tarea de clasificación semántica,2024.2.5,Linux x86_64,59.88023952,,,,,,,,,,,,,,,,,,,,,,,585.0888,586.137,s,1,0.3763,,0.3763,1,586.1372,586.6392,586.6392,586.6395,-0.08203125,-0.350260417,0,0,0,,0,212,212,20,1,21,FEM,DIS,150,0,luna,el,4,,,,
,,,,,,,2c0a0e05575eb676ad08be69,67d30250bc6dd184d4aaad81,67d7f68faa87c890fd7bb651,2025-03-17_04h17.09.330,Tarea de clasificación semántica,2024.2.5,Linux x86_64,59.88023952,,,,,,,,,,,,,,,,,,,,,,,586.6494,587.9415,s,1,0.6217,,0.6217,1,587.9417,588.4425,588.4425,588.4428,-0.08203125,-0.350260417,0,0,0,,0,213,213,90,1,91,FEM,DIS,150,0,banda,el,5,,,,
,,,,,,,2c0a0e05575eb676ad08be69,67d30250bc6dd184d4aaad81,67d7f68faa87c890fd7bb651,2025-03-17_04h17.09.330,Tarea de clasificación semántica,2024.2.5,Linux x86_64,59.88023952,,,,,,,,,,,,,,,,,,,,,,,588.445,589.6628,l,1,0.5403,,0.5403,1,589.663,590.1634,590.167,590.1681,-0.08203125,-0.350260417,0,0,0,,0,214,214,460,1,461,FEM,DIS,150,1,pulga,el,5,,,,
,,,,,,,2c0a0e05575eb676ad08be69,67d30250bc6dd184d4aaad81,67d7f68faa87c890fd7bb651,2025-03-17_04h17.09.330,Tarea de clasificación semántica,2024.2.5,Linux x86_64,59.88023952,,,,,,,,,,,,,,,,,,,,,,,590.1699,591.2992,s,1,0.4522,,0.4522,1,591.2993,591.7999,591.8,591.8003,-0.08203125,-0.350260417,0,0,0,,0,215,215,48,1,49,FEM,DIS,150,0,fama,el,4,,,,
,,,,,,,2c0a0e05575eb676ad08be69,67d30250bc6dd184d4aaad81,67d7f68faa87c890fd7bb651,2025-03-17_04h17.09.330,Tarea de clasificación semántica,2024.2.5,Linux x86_64,59.88023952,,,,,,,,,,,,,,,,,,,,,,,591.803,592.8193,s,1,0.3523,,0.3523,1,592.8194,593.3215,593.3216,593.3222,-0.08203125,-0.350260417,0,0,0,,0,216,216,291,1,292,MAS,AGR,150,0,campo,el,5,,,,
,,,,,,,2c0a0e05575eb676ad08be69,67d30250bc6dd184d4aaad81,67d7f68faa87c890fd7bb651,2025-03-17_04h17.09.330,Tarea de clasificación semántica,2024.2.5,Linux x86_64,59.88023952,,,,,,,,,,,,,,,,,,,,,,,593.3243,594.2896,s,1,0.2934,,0.2934,1,594.2897,594.7905,594.7905,594.7908,-0.08203125,-0.350260417,0,0,0,,0,217,217,366,1,367,MAS,DIS,150,0,cuello,la,6,,,,
,,,,,,,2c0a0e05575eb676ad08be69,67d30250bc6dd184d4aaad81,67d7f68faa87c890fd7bb651,2025-03-17_04h17.09.330,Tarea de clasificación semántica,2024.2.5,Linux x86_64,59.88023952,,,,,,,,,,,,,,,,,,,,,,,594.7937,595.7437,s,1,0.2918,,0.2918,1,595.7438,596.2444,596.2445,596.2447,-0.08203125,-0.350260417,0,0,0,,0,218,218,356,1,357,MAS,DIS,150,0,asunto,la,6,,,,
,,,,,,,2c0a0e05575eb676ad08be69,67d30250bc6dd184d4aaad81,67d7f68faa87c890fd7bb651,2025-03-17_04h17.09.330,Tarea de clasificación semántica,2024.2.5,Linux x86_64,59.88023952,,,,,,,,,,,,,,,,,,,,,,,596.2481,597.2966,s,1,0.3812,,0.3812,1,597.2968,597.7985,597.8018,597.8034,-0.08203125,-0.350260417,0,0,0,,0,219,219,16,1,17,FEM,DIS,150,0,caja,el,4,,,,
,,,,,,,2c0a0e05575eb676ad08be69,67d30250bc6dd184d4aaad81,67d7f68faa87c890fd7bb651,2025-03-17_04h17.09.330,Tarea de clasificación semántica,2024.2.5,Linux x86_64,59.88023952,,,,,,,,,,,,,,,,,,,,,,,597.8054,598.7841,s,1,0.302,,0.302,1,598.7843,599.2852,599.2852,599.2855,-0.08203125,-0.350260417,0,0,0,,0,220,220,341,1,342,MAS,AGR,150,0,botón,el,5,,,,
,,,,,,,2c0a0e05575eb676ad08be69,67d30250bc6dd184d4aaad81,67d7f68faa87c890fd7bb651,2025-03-17_04h17.09.330,Tarea de clasificación semántica,2024.2.5,Linux x86_64,59.88023952,,,,,,,,,,,,,,,,,,,,,,,599.2882,600.3044,s,0,0.3399,,0.3399,0,600.3088,600.8059,600.8059,600.8062,-0.08203125,-0.350260417,0,0,0,,0,221,221,514,1,515,MAS,DIS,150,1,chacal,la,6,,,,
,,,,,,,2c0a0e05575eb676ad08be69,67d30250bc6dd184d4aaad81,67d7f68faa87c890fd7bb651,2025-03-17_04h17.09.330,Tarea de clasificación semántica,2024.2.5,Linux x86_64,59.88023952,,,,,,,,,,,,,,,,,,,,,,,600.8119,601.8081,s,1,0.337,,0.337,1,601.8103,602.3097,602.3098,602.3107,-0.08203125,-0.350260417,0,0,0,,0,222,222,342,1,343,MAS,DIS,150,0,rumbo,la,5,,,,
,,,,,,,2c0a0e05575eb676ad08be69,67d30250bc6dd184d4aaad81,67d7f68faa87c890fd7bb651,2025-03-17_04h17.09.330,Tarea de clasificación semántica,2024.2.5,Linux x86_64,59.88023952,,,,,,,,,,,,,,,,,,,,,,,602.3137,603.4118,l,1,0.4194,,0.4194,1,603.4119,603.9126,603.9127,603.9129,-0.08203125,-0.350260417,0,0,0,,0,223,223,522,1,523,MAS,DIS,150,1,gato,la,4,,,,
,,,,,,,2c0a0e05575eb676ad08be69,67d30250bc6dd184d4aaad81,67d7f68faa87c890fd7bb651,2025-03-17_04h17.09.330,Tarea de clasificación semántica,2024.2.5,Linux x86_64,59.88023952,,,,,,,,,,,,,,,,,,,,,,,603.9157,605.0161,l,1,0.444,,0.444,1,605.0162,605.5165,605.5166,605.5168,-0.08203125,-0.350260417,0,0,0,,0,224,224,476,1,477,FEM,DIS,150,1,gacela,el,6,,,,
,,,,,,,2c0a0e05575eb676ad08be69,67d30250bc6dd184d4aaad81,67d7f68faa87c890fd7bb651,2025-03-17_04h17.09.330,Tarea de clasificación semántica,2024.2.5,Linux x86_64,59.88023952,,,,,,,,,,,,,,,,,,,,,,,605.5193,606.5868,s,1,0.4024,,0.4024,1,606.5875,607.0869,607.0903,607.0916,-0.08203125,-0.350260417,0,0,0,,0,225,225,239,1,240,MAS,AGR,150,0,hoyo,el,4,,,,
,,,,,,,2c0a0e05575eb676ad08be69,67d30250bc6dd184d4aaad81,67d7f68faa87c890fd7bb651,2025-03-17_04h17.09.330,Tarea de clasificación semántica,2024.2.5,Linux x86_64,59.88023952,,,,,,,,,,,,,,,,,,,,,,,607.0934,608.1896,s,1,0.4184,,0.4184,1,608.1898,608.6914,608.6914,608.6917,-0.08203125,-0.350260417,0,0,0,,0,226,226,244,1,245,MAS,DIS,150,0,nene,la,4,,,,
,,,,,,,2c0a0e05575eb676ad08be69,67d30250bc6dd184d4aaad81,67d7f68faa87c890fd7bb651,2025-03-17_04h17.09.330,Tarea de clasificación semántica,2024.2.5,Linux x86_64,59.88023952,,,,,,,,,,,,,,,,,,,,,,,608.6944,609.8972,s,1,0.5303,,0.5303,1,609.8975,610.3956,610.3957,610.3961,-0.08203125,-0.350260417,0,0,0,,0,227,227,266,1,267,MAS,DIS,150,0,vago,la,4,,,,
,,,,,,,2c0a0e05575eb676ad08be69,67d30250bc6dd184d4aaad81,67d7f68faa87c890fd7bb651,2025-03-17_04h17.09.330,Tarea de clasificación semántica,2024.2.5,Linux x86_64,59.88023952,,,,,,,,,,,,,,,,,,,,,,,610.399,611.4323,s,1,0.3711,,0.3711,1,611.4324,611.9327,611.9327,611.933,-0.08203125,-0.350260417,0,0,0,,0,228,228,178,1,179,FEM,DIS,150,0,muñeca,el,6,,,,
,,,,,,,2c0a0e05575eb676ad08be69,67d30250bc6dd184d4aaad81,67d7f68faa87c890fd7bb651,2025-03-17_04h17.09.330,Tarea de clasificación semántica,2024.2.5,Linux x86_64,59.88023952,,,,,,,,,,,,,,,,,,,,,,,611.9361,612.9176,s,1,0.3035,,0.3035,1,612.9178,613.4188,613.4189,613.419,-0.08203125,-0.350260417,0,0,0,,0,229,229,205,1,206,FEM,AGR,150,0,medida,la,6,,,,
,,,,,,,2c0a0e05575eb676ad08be69,67d30250bc6dd184d4aaad81,67d7f68faa87c890fd7bb651,2025-03-17_04h17.09.330,Tarea de clasificación semántica,2024.2.5,Linux x86_64,59.88023952,,,,,,,,,,,,,,,,,,,,,,,613.4216,614.438,s,1,0.352,,0.352,1,614.4381,614.9406,614.9431,614.9445,-0.08203125,-0.350260417,0,0,0,,0,230,230,385,1,386,MAS,AGR,150,0,pedazo,el,6,,,,
,,,,,,,2c0a0e05575eb676ad08be69,67d30250bc6dd184d4aaad81,67d7f68faa87c890fd7bb651,2025-03-17_04h17.09.330,Tarea de clasificación semántica,2024.2.5,Linux x86_64,59.88023952,,,,,,,,,,,,,,,,,,,,,,,614.9464,616.0258,s,1,0.3987,,0.3987,1,616.0261,616.5268,616.527,616.528,-0.08203125,-0.350260417,0,0,0,,0,231,231,248,1,249,MAS,DIS,150,0,tomo,la,4,,,,
,,,,,,,2c0a0e05575eb676ad08be69,67d30250bc6dd184d4aaad81,67d7f68faa87c890fd7bb651,2025-03-17_04h17.09.330,Tarea de clasificación semántica,2024.2.5,Linux x86_64,59.88023952,,,,,,,,,,,,,,,,,,,,,,,616.5299,617.6462,s,1,0.4402,,0.4402,1,617.6464,618.1471,618.1473,618.148,-0.08203125,-0.350260417,0,0,0,,0,232,232,77,1,78,FEM,AGR,150,0,amiga,la,5,,,,
,,,,,,,2c0a0e05575eb676ad08be69,67d30250bc6dd184d4aaad81,67d7f68faa87c890fd7bb651,2025-03-17_04h17.09.330,Tarea de clasificación semántica,2024.2.5,Linux x86_64,59.88023952,,,,,,,,,,,,,,,,,,,,,,,618.151,619.1835,s,1,0.355,,0.355,1,619.1836,619.684,619.6841,619.6843,-0.08203125,-0.350260417,0,0,0,,0,233,233,15,1,16,FEM,AGR,150,0,edad,la,4,,,,
,,,,,,,2c0a0e05575eb676ad08be69,67d30250bc6dd184d4aaad81,67d7f68faa87c890fd7bb651,2025-03-17_04h17.09.330,Tarea de clasificación semántica,2024.2.5,Linux x86_64,59.88023952,,,,,,,,,,,,,,,,,,,,,,,619.687,620.7698,s,1,0.4187,,0.4187,1,620.77,621.2714,621.2715,621.2718,-0.08203125,-0.350260417,0,0,0,,0,234,234,103,1,104,FEM,AGR,150,0,costa,la,5,,,,
,,,,,,,2c0a0e05575eb676ad08be69,67d30250bc6dd184d4aaad81,67d7f68faa87c890fd7bb651,2025-03-17_04h17.09.330,Tarea de clasificación semántica,2024.2.5,Linux x86_64,59.88023952,,,,,,,,,,,,,,,,,,,,,,,621.2749,622.2405,s,1,0.294,,0.294,1,622.2406,622.7419,622.742,622.7426,-0.08203125,-0.350260417,0,0,0,,0,235,235,2,1,3,FEM,DIS,150,0,cosa,el,4,,,,
,,,,,,,2c0a0e05575eb676ad08be69,67d30250bc6dd184d4aaad81,67d7f68faa87c890fd7bb651,2025-03-17_04h17.09.330,Tarea de clasificación semántica,2024.2.5,Linux x86_64,59.88023952,,,,,,,,,,,,,,,,,,,,,,,622.7447,623.7118,s,1,0.2885,,0.2885,1,623.712,624.2114,624.2148,624.2161,-0.08203125,-0.350260417,0,0,0,,0,236,236,44,1,45,FEM,DIS,150,0,lata,el,4,,,,
,,,,,,,2c0a0e05575eb676ad08be69,67d30250bc6dd184d4aaad81,67d7f68faa87c890fd7bb651,2025-03-17_04h17.09.330,Tarea de clasificación semántica,2024.2.5,Linux x86_64,59.88023952,,,,,,,,,,,,,,,,,,,,,,,624.2179,625.3824,l,1,0.4944,,0.4944,1,625.3827,625.8838,625.8839,625.8842,-0.08203125,-0.350260417,0,0,0,,0,237,237,530,1,531,MAS,DIS,150,1,loro,la,4,,,,
,,,,,,,2c0a0e05575eb676ad08be69,67d30250bc6dd184d4aaad81,67d7f68faa87c890fd7bb651,2025-03-17_04h17.09.330,Tarea de clasificación semántica,2024.2.5,Linux x86_64,59.88023952,,,,,,,,,,,,,,,,,,,,,,,625.8868,627.0193,l,1,0.4619,,0.4619,1,627.0195,627.5193,627.5194,627.5196,-0.08203125,-0.350260417,0,0,0,,0,238,238,484,1,485,FEM,DIS,150,1,víbora,el,6,,,,
,,,,,,,2c0a0e05575eb676ad08be69,67d30250bc6dd184d4aaad81,67d7f68faa87c890fd7bb651,2025-03-17_04h17.09.330,Tarea de clasificación semántica,2024.2.5,Linux x86_64,59.88023952,,,,,,,,,,,,,,,,,,,,,,,627.5223,628.7064,l,1,0.5184,,0.5184,1,628.7065,629.2088,629.2088,629.2092,-0.08203125,-0.350260417,0,0,0,,0,239,239,548,1,549,MAS,DIS,150,1,buitre,la,6,,,,
,,,,,,,2c0a0e05575eb676ad08be69,67d30250bc6dd184d4aaad81,67d7f68faa87c890fd7bb651,2025-03-17_04h17.09.330,Tarea de clasificación semántica,2024.2.5,Linux x86_64,59.88023952,,,,,,,,,,,,,,,,,,,,,,,629.2116,630.5439,s,1,0.659,,0.659,1,630.544,631.0453,631.0454,631.0457,-0.08203125,-0.350260417,0,0,0,,0,240,240,45,1,46,FEM,AGR,150,0,capa,la,4,,,,
,,,,,,,2c0a0e05575eb676ad08be69,67d30250bc6dd184d4aaad81,67d7f68faa87c890fd7bb651,2025-03-17_04h17.09.330,Tarea de clasificación semántica,2024.2.5,Linux x86_64,59.88023952,,,,,,,,,,,,,,,,,,,,,,,631.0485,632.3488,l,1,0.645,,0.645,1,632.349,632.8496,632.8533,632.8545,-0.08203125,-0.350260417,0,0,0,,0,241,241,516,1,517,MAS,DIS,150,1,búho,la,4,,,,
,,,,,,,2c0a0e05575eb676ad08be69,67d30250bc6dd184d4aaad81,67d7f68faa87c890fd7bb651,2025-03-17_04h17.09.330,Tarea de clasificación semántica,2024.2.5,Linux x86_64,59.88023952,,,,,,,,,,,,,,,,,,,,,,,632.8559,633.9522,l,1,0.4261,,0.4261,1,633.9524,634.4536,634.4538,634.454,-0.08203125,-0.350260417,0,0,0,,0,242,242,519,1,520,MAS,AGR,150,1,gallo,el,5,,,,
,,,,,,,2c0a0e05575eb676ad08be69,67d30250bc6dd184d4aaad81,67d7f68faa87c890fd7bb651,2025-03-17_04h17.09.330,Tarea de clasificación semántica,2024.2.5,Linux x86_64,59.88023952,,,,,,,,,,,,,,,,,,,,,,,634.457,635.7067,l,1,0.5729,,0.5729,1,635.7068,636.208,636.2081,636.2083,-0.08203125,-0.350260417,0,0,0,,0,243,243,431,1,432,FEM,AGR,150,1,morsa,la,5,,,,
,,,,,,,2c0a0e05575eb676ad08be69,67d30250bc6dd184d4aaad81,67d7f68faa87c890fd7bb651,2025-03-17_04h17.09.330,Tarea de clasificación semántica,2024.2.5,Linux x86_64,59.88023952,,,,,,,,,,,,,,,,,,,,,,,636.2111,637.6283,s,1,0.7342,,0.7342,1,637.6284,638.1294,638.1295,638.1298,-0.08203125,-0.350260417,0,0,0,,0,244,244,26,1,27,FEM,DIS,150,0,bala,el,4,,,,
,,,,,,,2c0a0e05575eb676ad08be69,67d30250bc6dd184d4aaad81,67d7f68faa87c890fd7bb651,2025-03-17_04h17.09.330,Tarea de clasificación semántica,2024.2.5,Linux x86_64,59.88023952,,,,,,,,,,,,,,,,,,,,,,,638.1325,639.2821,s,1,0.4706,,0.4706,1,639.283,639.7842,639.7845,639.7846,-0.08203125,-0.350260417,0,0,0,,0,245,245,4,1,5,FEM,DIS,150,0,idea,el,4,,,,
,,,,,,,2c0a0e05575eb676ad08be69,67d30250bc6dd184d4aaad81,67d7f68faa87c890fd7bb651,2025-03-17_04h17.09.330,Tarea de clasificación semántica,2024.2.5,Linux x86_64,59.88023952,,,,,,,,,,,,,,,,,,,,,,,639.7862,640.8692,l,1,0.4059,,0.4059,1,640.8693,641.3702,641.3703,641.3706,-0.08203125,-0.350260417,0,0,0,,0,246,246,449,1,450,FEM,AGR,150,1,víbora,la,6,,,,
,,,,,,,2c0a0e05575eb676ad08be69,67d30250bc6dd184d4aaad81,67d7f68faa87c890fd7bb651,2025-03-17_04h17.09.330,Tarea de clasificación semántica,2024.2.5,Linux x86_64,59.88023952,,,,,,,,,,,,,,,,,,,,,,,641.3732,642.4891,l,1,0.4544,,0.4544,1,642.4894,642.9903,642.9936,642.995,-0.08203125,-0.350260417,0,0,0,,0,247,247,465,1,466,FEM,AGR,150,1,hiena,la,5,,,,
,,,,,,,2c0a0e05575eb676ad08be69,67d30250bc6dd184d4aaad81,67d7f68faa87c890fd7bb651,2025-03-17_04h17.09.330,Tarea de clasificación semántica,2024.2.5,Linux x86_64,59.88023952,,,,,,,,,,,,,,,,,,,,,,,642.9969,644.2445,s,1,0.5792,,0.5792,1,644.2447,644.7446,644.7446,644.7449,-0.08203125,-0.350260417,0,0,0,,0,248,248,229,1,230,MAS,AGR,150,0,loco,el,4,,,,
,,,,,,,2c0a0e05575eb676ad08be69,67d30250bc6dd184d4aaad81,67d7f68faa87c890fd7bb651,2025-03-17_04h17.09.330,Tarea de clasificación semántica,2024.2.5,Linux x86_64,59.88023952,,,,,,,,,,,,,,,,,,,,,,,644.7476,645.7317,s,1,0.322,,0.322,1,645.7319,646.2323,646.2324,646.2332,-0.08203125,-0.350260417,0,0,0,,0,249,249,297,1,298,MAS,AGR,150,0,honor,el,5,,,,
,,,,,,,2c0a0e05575eb676ad08be69,67d30250bc6dd184d4aaad81,67d7f68faa87c890fd7bb651,2025-03-17_04h17.09.330,Tarea de clasificación semántica,2024.2.5,Linux x86_64,59.88023952,,,,,,,,,,,,,,,,,,,,,,,646.2369,647.2516,s,1,0.3423,,0.3423,1,647.2518,647.7523,647.7524,647.7526,-0.08203125,-0.350260417,0,0,0,,0,250,250,245,1,246,MAS,AGR,150,0,mago,el,4,,,,
,,,,,,,2c0a0e05575eb676ad08be69,67d30250bc6dd184d4aaad81,67d7f68faa87c890fd7bb651,2025-03-17_04h17.09.330,Tarea de clasificación semántica,2024.2.5,Linux x86_64,59.88023952,,,,,,,,,,,,,,,,,,,,,,,647.7554,648.7213,s,1,0.3064,,0.3064,1,648.7217,649.2228,649.2229,649.2238,-0.08203125,-0.350260417,0,0,0,,0,251,251,292,1,293,MAS,DIS,150,0,dolor,la,5,,,,
,,,,,,,2c0a0e05575eb676ad08be69,67d30250bc6dd184d4aaad81,67d7f68faa87c890fd7bb651,2025-03-17_04h17.09.330,Tarea de clasificación semántica,2024.2.5,Linux x86_64,59.88023952,,,,,,,,,,,,,,,,,,,,,,,649.2266,650.1751,s,1,0.2686,,0.2686,1,650.1753,650.6772,650.6805,650.6865,-0.08203125,-0.350260417,0,0,0,,0,252,252,118,1,119,FEM,DIS,150,0,caída,el,5,,,,
,,,,,,,2c0a0e05575eb676ad08be69,67d30250bc6dd184d4aaad81,67d7f68faa87c890fd7bb651,2025-03-17_04h17.09.330,Tarea de clasificación semántica,2024.2.5,Linux x86_64,59.88023952,,,,,,,,,,,,,,,,,,,,,,,650.6923,651.6949,s,1,0.3385,,0.3385,1,651.6951,652.1967,652.1967,652.1969,-0.08203125,-0.350260417,0,0,0,,0,253,253,65,1,66,FEM,AGR,150,0,cera,la,4,,,,
,,,,,,,2c0a0e05575eb676ad08be69,67d30250bc6dd184d4aaad81,67d7f68faa87c890fd7bb651,2025-03-17_04h17.09.330,Tarea de clasificación semántica,2024.2.5,Linux x86_64,59.88023952,,,,,,,,,,,,,,,,,,,,,,,652.1999,653.3496,l,1,0.4855,,0.4855,1,653.3498,653.8502,653.8502,653.8505,-0.08203125,-0.350260417,0,0,0,,0,254,254,417,1,418,FEM,AGR,150,1,foca,la,4,,,,
,,,,,,,2c0a0e05575eb676ad08be69,67d30250bc6dd184d4aaad81,67d7f68faa87c890fd7bb651,2025-03-17_04h17.09.330,Tarea de clasificación semántica,2024.2.5,Linux x86_64,59.88023952,,,,,,,,,,,,,,,,,,,,,,,653.8526,655.0034,s,1,0.4747,,0.4747,1,655.0036,655.5042,655.5044,655.5048,-0.08203125,-0.350260417,0,0,0,,0,255,255,397,1,398,MAS,AGR,150,0,cheque,el,6,,,,
,,,,,,,2c0a0e05575eb676ad08be69,67d30250bc6dd184d4aaad81,67d7f68faa87c890fd7bb651,2025-03-17_04h17.09.330,Tarea de clasificación semántica,2024.2.5,Linux x86_64,59.88023952,,,,,,,,,,,,,,,,,,,,,,,655.508,656.6406,l,1,0.4693,,0.4693,1,656.6407,657.1422,657.1424,657.1425,-0.08203125,-0.350260417,0,0,0,,0,256,256,534,1,535,MAS,DIS,150,1,pollo,la,5,,,,
,,,,,,,2c0a0e05575eb676ad08be69,67d30250bc6dd184d4aaad81,67d7f68faa87c890fd7bb651,2025-03-17_04h17.09.330,Tarea de clasificación semántica,2024.2.5,Linux x86_64,59.88023952,,,,,,,,,,,,,,,,,,,,,,,657.1459,658.3616,s,1,0.5387,,0.5387,1,658.362,658.8623,658.8623,658.8626,-0.08203125,-0.350260417,0,0,0,,0,257,257,109,1,110,FEM,AGR,150,0,bruja,la,5,,,,
,,,,,,,2c0a0e05575eb676ad08be69,67d30250bc6dd184d4aaad81,67d7f68faa87c890fd7bb651,2025-03-17_04h17.09.330,Tarea de clasificación semántica,2024.2.5,Linux x86_64,59.88023952,,,,,,,,,,,,,,,,,,,,,,,658.8652,660.0318,s,1,0.4872,,0.4872,1,660.032,660.5333,660.5376,660.5392,-0.08203125,-0.350260417,0,0,0,,0,258,258,87,1,88,FEM,AGR,150,0,lista,la,5,,,,
,,,,,,,2c0a0e05575eb676ad08be69,67d30250bc6dd184d4aaad81,67d7f68faa87c890fd7bb651,2025-03-17_04h17.09.330,Tarea de clasificación semántica,2024.2.5,Linux x86_64,59.88023952,,,,,,,,,,,,,,,,,,,,,,,660.541,661.4534,s,1,0.245,,0.245,1,661.4535,661.9537,661.9538,661.9558,-0.08203125,-0.350260417,0,0,0,,0,259,259,129,1,130,FEM,AGR,150,0,plaza,la,5,,,,
,,,,,,,2c0a0e05575eb676ad08be69,67d30250bc6dd184d4aaad81,67d7f68faa87c890fd7bb651,2025-03-17_04h17.09.330,Tarea de clasificación semántica,2024.2.5,Linux x86_64,59.88023952,,,,,,,,,,,,,,,,,,,,,,,661.9591,663.2057,l,1,0.5765,,0.5765,1,663.2058,663.7075,663.7076,663.7078,-0.08203125,-0.350260417,0,0,0,,0,260,260,467,1,468,FEM,AGR,150,1,oveja,la,5,,,,
,,,,,,,2c0a0e05575eb676ad08be69,67d30250bc6dd184d4aaad81,67d7f68faa87c890fd7bb651,2025-03-17_04h17.09.330,Tarea de clasificación semántica,2024.2.5,Linux x86_64,59.88023952,,,,,,,,,,,,,,,,,,,,,,,663.7108,664.8105,s,1,0.4428,,0.4428,1,664.8106,665.3117,665.3118,665.3121,-0.08203125,-0.350260417,0,0,0,,0,261,261,53,1,54,FEM,AGR,150,0,goma,la,4,,,,
,,,,,,,2c0a0e05575eb676ad08be69,67d30250bc6dd184d4aaad81,67d7f68faa87c890fd7bb651,2025-03-17_04h17.09.330,Tarea de clasificación semántica,2024.2.5,Linux x86_64,59.88023952,,,,,,,,,,,,,,,,,,,,,,,665.3149,666.5143,l,1,0.5417,,0.5417,1,666.5145,667.0163,667.0164,667.0167,-0.08203125,-0.350260417,0,0,0,,0,262,262,540,1,541,MAS,DIS,150,1,pulpo,la,5,,,,
,,,,,,,2c0a0e05575eb676ad08be69,67d30250bc6dd184d4aaad81,67d7f68faa87c890fd7bb651,2025-03-17_04h17.09.330,Tarea de clasificación semántica,2024.2.5,Linux x86_64,59.88023952,,,,,,,,,,,,,,,,,,,,,,,667.019,668.2185,s,1,0.5184,,0.5184,1,668.2187,668.7198,668.7199,668.7202,-0.08203125,-0.350260417,0,0,0,,0,263,263,56,1,57,FEM,DIS,150,0,pila,el,4,,,,
,,,,,,,2c0a0e05575eb676ad08be69,67d30250bc6dd184d4aaad81,67d7f68faa87c890fd7bb651,2025-03-17_04h17.09.330,Tarea de clasificación semántica,2024.2.5,Linux x86_64,59.88023952,,,,,,,,,,,,,,,,,,,,,,,668.7231,670.0067,s,1,0.618,,0.618,1,670.0068,670.5077,670.511,670.5124,-0.08203125,-0.350260417,0,0,0,,0,264,264,300,1,301,MAS,DIS,150,0,suelo,la,5,,,,
,,,,,,,2c0a0e05575eb676ad08be69,67d30250bc6dd184d4aaad81,67d7f68faa87c890fd7bb651,2025-03-17_04h17.09.330,Tarea de clasificación semántica,2024.2.5,Linux x86_64,59.88023952,,,,,,,,,,,,,,,,,,,,,,,670.5142,671.6435,s,1,0.4594,,0.4594,1,671.6438,672.1446,672.1448,672.145,-0.08203125,-0.350260417,0,0,0,,0,265,265,80,1,81,FEM,DIS,150,0,mitad,el,5,,,,
,,,,,,,2c0a0e05575eb676ad08be69,67d30250bc6dd184d4aaad81,67d7f68faa87c890fd7bb651,2025-03-17_04h17.09.330,Tarea de clasificación semántica,2024.2.5,Linux x86_64,59.88023952,,,,,,,,,,,,,,,,,,,,,,,672.1482,673.0973,s,1,0.2691,,0.2691,1,673.0975,673.598,673.5981,673.5983,-0.08203125,-0.350260417,0,0,0,,0,266,266,110,1,111,FEM,DIS,150,0,torre,el,5,,,,
,,,,,,,2c0a0e05575eb676ad08be69,67d30250bc6dd184d4aaad81,67d7f68faa87c890fd7bb651,2025-03-17_04h17.09.330,Tarea de clasificación semántica,2024.2.5,Linux x86_64,59.88023952,,,,,,,,,,,,,,,,,,,,,,,673.6012,674.5671,s,1,0.2859,,0.2859,1,674.5672,675.0688,675.0689,675.0693,-0.08203125,-0.350260417,0,0,0,,0,267,267,264,1,265,MAS,DIS,150,0,kilo,la,4,,,,
,,,,,,,2c0a0e05575eb676ad08be69,67d30250bc6dd184d4aaad81,67d7f68faa87c890fd7bb651,2025-03-17_04h17.09.330,Tarea de clasificación semántica,2024.2.5,Linux x86_64,59.88023952,,,,,,,,,,,,,,,,,,,,,,,675.0724,676.0042,s,1,0.2554,,0.2554,1,676.0044,676.5049,676.5051,676.5053,-0.08203125,-0.350260417,0,0,0,,0,268,268,257,1,258,MAS,AGR,150,0,baúl,el,4,,,,
,,,,,,,2c0a0e05575eb676ad08be69,67d30250bc6dd184d4aaad81,67d7f68faa87c890fd7bb651,2025-03-17_04h17.09.330,Tarea de clasificación semántica,2024.2.5,Linux x86_64,59.88023952,,,,,,,,,,,,,,,,,,,,,,,676.5087,677.6751,l,1,0.5027,,0.5027,1,677.6753,678.1762,678.1799,678.1817,-0.08203125,-0.350260417,0,0,0,,0,269,269,511,1,512,MAS,AGR,150,1,gorila,el,6,,,,
,,,,,,,2c0a0e05575eb676ad08be69,67d30250bc6dd184d4aaad81,67d7f68faa87c890fd7bb651,2025-03-17_04h17.09.330,Tarea de clasificación semántica,2024.2.5,Linux x86_64,59.88023952,,,,,,,,,,,,,,,,,,,,,,,678.1837,679.261,s,1,0.4019,,0.4019,1,679.2612,679.7639,679.764,679.7646,-0.08203125,-0.350260417,0,0,0,,0,270,270,234,1,235,MAS,DIS,150,0,saco,la,4,,,,
,,,,,,,2c0a0e05575eb676ad08be69,67d30250bc6dd184d4aaad81,67d7f68faa87c890fd7bb651,2025-03-17_04h17.09.330,Tarea de clasificación semántica,2024.2.5,Linux x86_64,59.88023952,,,,,,,,,,,,,,,,,,,,,,,679.7667,681.117,s,1,0.6745,,0.6745,1,681.1171,681.6177,681.6178,681.6181,-0.08203125,-0.350260417,0,0,0,,0,271,271,175,1,176,FEM,AGR,150,0,granja,la,6,,,,
,,,,,,,2c0a0e05575eb676ad08be69,67d30250bc6dd184d4aaad81,67d7f68faa87c890fd7bb651,2025-03-17_04h17.09.330,Tarea de clasificación semántica,2024.2.5,Linux x86_64,59.88023952,,,,,,,,,,,,,,,,,,,,,,,681.6209,682.6372,s,1,0.3351,,0.3351,1,682.6374,683.1381,683.1382,683.1384,-0.08203125,-0.350260417,0,0,0,,0,272,272,319,1,320,MAS,AGR,150,0,humor,el,5,,,,
,,,,,,,2c0a0e05575eb676ad08be69,67d30250bc6dd184d4aaad81,67d7f68faa87c890fd7bb651,2025-03-17_04h17.09.330,Tarea de clasificación semántica,2024.2.5,Linux x86_64,59.88023952,,,,,,,,,,,,,,,,,,,,,,,683.1407,684.1242,s,0,0.3216,,0.3216,0,684.1278,684.6247,684.6248,684.6251,-0.08203125,-0.350260417,0,0,0,,0,273,273,475,1,476,FEM,AGR,150,1,grulla,la,6,,,,
,,,,,,,2c0a0e05575eb676ad08be69,67d30250bc6dd184d4aaad81,67d7f68faa87c890fd7bb651,2025-03-17_04h17.09.330,Tarea de clasificación semántica,2024.2.5,Linux x86_64,59.88023952,,,,,,,,,,,,,,,,,,,,,,,684.6277,685.6771,s,1,0.3868,,0.3868,1,685.6794,686.1783,686.1784,686.1787,-0.08203125,-0.350260417,0,0,0,,0,274,274,153,1,154,FEM,AGR,150,0,cárcel,la,6,,,,
