counterbalancing_condition,counterbalancing_condition_full,consent_prescreening.block_1/declare_consent,consent_prescreening.block_1/age_years,consent_prescreening.block_1/gender,consent_prescreening.block_1/language_disorder,consent_prescreening.block_1/first_language,PROLIFIC_PID,STUDY_ID,SESSION_ID,date,expName,psychopyVersion,OS,frameRate,check_prescreening_answers.started,check_prescreening_answers.stopped,Instructions.started,Instructions.stopped,instr_done_keyboard.keys,instr_done_keyboard.rt,instr_done_keyboard.duration,instr_done_touch.x,instr_done_touch.y,instr_done_touch.leftButton,instr_done_touch.midButton,instr_done_touch.rightButton,instruction_pages.thisRepN,instruction_pages.thisTrialN,instruction_pages.thisN,instruction_pages.thisIndex,instruction_pages.ran,pageN,phase,instruct_text,has_image,instruct_image,presentTrial.started,presentTrial.stopped,response.keys,response.corr,response.rt,response.duration,rt,corr,feedback.started,feedback.stopped,instr_done_touch.clicked_name,Break.started,Break.stopped,break_done_touch.x,break_done_touch.y,break_done_touch.leftButton,break_done_touch.midButton,break_done_touch.rightButton,break_done_keyboard.keys,experiment_trials.thisRepN,experiment_trials.thisTrialN,experiment_trials.thisN,experiment_trials.thisIndex,experiment_trials.ran,TrialID,StimulusType,Condition,PrimeDuration,IsAnimal,Prime,Flanker,letters,break_done_keyboard.rt,break_done_keyboard.duration,break_done_touch.clicked_name,End.started,End.stopped
1,7,"[""over_18"",""consent_given"",""read_info"",""comfortable""]",22,M,"[""none""]","[""spanish"",""english""]",6e964b5132c2ea0222cac9fd,67d30250bc6dd184d4aaad81,67d7e9a6201df410f7a7df5f,2025-03-17_02h22.15.586,Tarea de clasificación semántica,2024.2.5,MacIntel,57.80346821,,,,,,,,,,,,,,,,,,,,,,,,,,,,,,,,,,,,,,,,,,,,,,,,,,,,,,,,,,,
,,,,,,,6e964b5132c2ea0222cac9fd,67d30250bc6dd184d4aaad81,67d7e9a6201df410f7a7df5f,2025-03-17_02h22.15.586,Tarea de clasificación semántica,2024.2.5,MacIntel,57.80346821,59.3046,59.3047,,,,,,,,,,,,,,,,,,,,,,,,,,,,,,,,,,,,,,,,,,,,,,,,,,,,,,,,,
,,,,,,,6e964b5132c2ea0222cac9fd,67d30250bc6dd184d4aaad81,67d7e9a6201df410f7a7df5f,2025-03-17_02h22.15.586,Tarea de clasificación semántica,2024.2.5,MacIntel,57.80346821,,,59.3373,101.8555,space,42.439,,-0.141233453,-0.010638021,0,0,0,0,0,0,0,1,1,instructions,"INSTRUCCIONES
Va a realizar una prueba de clasificación de palabras. Desde comienzo de la prueba siempre mire al centro de la pantalla. Al cabo de un momento, aparecerán palabras. La tarea consiste en determinar si la palabra del centro (siempre será un sustantivo) se refiere un animal (no humano).

Pulse la tecla ESPACIO para continuar.",0,keyboardresponseNA.png,,,,,,,,,,,,,,,,,,,,,,,,,,,,,,,,,,,,,
,,,,,,,6e964b5132c2ea0222cac9fd,67d30250bc6dd184d4aaad81,67d7e9a6201df410f7a7df5f,2025-03-17_02h22.15.586,Tarea de clasificación semántica,2024.2.5,MacIntel,57.80346821,,,101.86,150.3908,space,48.4299,,-0.248592868,-0.347376641,0,0,0,0,1,1,1,1,2,instructions,"En el teclado de su dispositivo, pulse la tecla ""L"" para las palabras que se refieren a animales (por ejemplo: ""buey"") y la tecla ""S"" para las palabras que no se refieren a animales (por ejemplo: ""vecino"").

Pulse la tecla ESPACIO para continuar.",1,keyboardresponseNA.png,,,,,,,,,,,,,,,,,,,,,,,,,,,,,,,,,,,,,
,,,,,,,6e964b5132c2ea0222cac9fd,67d30250bc6dd184d4aaad81,67d7e9a6201df410f7a7df5f,2025-03-17_02h22.15.586,Tarea de clasificación semántica,2024.2.5,MacIntel,57.80346821,,,150.3952,172.4136,space,21.9756,,-0.248592868,-0.347376641,0,0,0,0,2,2,2,1,3,instructions,"Es muy importante que responda con la mayor rapidez y precisión posibles, ya que cada cadena de letras sólo estará en pantalla durante un instante. Si no responde en ese tiempo, aparecerá el mensaje ""Muy lento"" y el experimento pasará a la siguiente palabra. Los primeros 15 intentos serán de práctica y habrá dos descansos durante la prueba.
Pulse la tecla ESPACIO para iniciar la parte de práctica.",0,keyboardresponseNA.png,,,,,,,,,,,,,,,,,,,,,,,,,,,,,,,,,,,,,
,,,,,,,6e964b5132c2ea0222cac9fd,67d30250bc6dd184d4aaad81,67d7e9a6201df410f7a7df5f,2025-03-17_02h22.15.586,Tarea de clasificación semántica,2024.2.5,MacIntel,57.80346821,,,208.8302,218.4646,,,,-0.111754964,-0.398321601,1,0,0,,,,,,,,,,,218.6471,221.0512,s,1,1.7091,,1.7091,1,221.0513,221.5618,instr_done_button,221.5621,221.5652,-0.111754964,-0.398321601,0,0,0,,0,0,0,302,1,303,MAS,DIS,150,0,baile,la,5,,,,,
,,,,,,,6e964b5132c2ea0222cac9fd,67d30250bc6dd184d4aaad81,67d7e9a6201df410f7a7df5f,2025-03-17_02h22.15.586,Tarea de clasificación semántica,2024.2.5,MacIntel,57.80346821,,,,,,,,,,,,,,,,,,,,,,,221.5665,222.9268,l,0,0.6548,,0.6548,0,222.9276,223.4285,,223.4286,223.4287,-0.111754964,-0.398321601,0,0,0,,0,1,1,51,1,52,FEM,AGR,150,0,gota,la,4,,,,,
,,,,,,,6e964b5132c2ea0222cac9fd,67d30250bc6dd184d4aaad81,67d7e9a6201df410f7a7df5f,2025-03-17_02h22.15.586,Tarea de clasificación semántica,2024.2.5,MacIntel,57.80346821,,,,,,,,,,,,,,,,,,,,,,,223.4298,224.6512,s,0,0.5588,,0.5588,0,224.6513,225.1273,,225.1287,225.1303,-0.111754964,-0.398321601,0,0,0,,0,2,2,555,1,556,MAS,AGR,150,1,ciervo,el,6,,,,,
,,,,,,,6e964b5132c2ea0222cac9fd,67d30250bc6dd184d4aaad81,67d7e9a6201df410f7a7df5f,2025-03-17_02h22.15.586,Tarea de clasificación semántica,2024.2.5,MacIntel,57.80346821,,,,,,,,,,,,,,,,,,,,,,,225.1314,226.4773,l,1,0.6566,,0.6566,1,226.4784,227.0124,,227.0125,227.0126,-0.111754964,-0.398321601,0,0,0,,0,3,3,457,1,458,FEM,AGR,150,1,mula,la,4,,,,,
,,,,,,,6e964b5132c2ea0222cac9fd,67d30250bc6dd184d4aaad81,67d7e9a6201df410f7a7df5f,2025-03-17_02h22.15.586,Tarea de clasificación semántica,2024.2.5,MacIntel,57.80346821,,,,,,,,,,,,,,,,,,,,,,,227.0142,228.9841,s,1,1.2875,,1.2875,1,228.9842,229.4762,,229.4762,229.4764,-0.111754964,-0.398321601,0,0,0,,0,4,4,275,1,276,MAS,AGR,150,0,mundo,el,5,,,,,
,,,,,,,6e964b5132c2ea0222cac9fd,67d30250bc6dd184d4aaad81,67d7e9a6201df410f7a7df5f,2025-03-17_02h22.15.586,Tarea de clasificación semántica,2024.2.5,MacIntel,57.80346821,,,,,,,,,,,,,,,,,,,,,,,229.4773,230.9263,l,1,0.7883,,0.7883,1,230.9265,231.4172,,231.4174,231.4177,-0.111754964,-0.398321601,0,0,0,,0,5,5,480,1,481,FEM,DIS,150,1,urraca,el,6,,,,,
,,,,,,,6e964b5132c2ea0222cac9fd,67d30250bc6dd184d4aaad81,67d7e9a6201df410f7a7df5f,2025-03-17_02h22.15.586,Tarea de clasificación semántica,2024.2.5,MacIntel,57.80346821,,,,,,,,,,,,,,,,,,,,,,,231.4196,232.799,s,1,0.7155,,0.7155,1,232.7995,233.2995,,233.2996,233.2998,-0.111754964,-0.398321601,0,0,0,,0,6,6,319,1,320,MAS,AGR,150,0,humor,el,5,,,,,
,,,,,,,6e964b5132c2ea0222cac9fd,67d30250bc6dd184d4aaad81,67d7e9a6201df410f7a7df5f,2025-03-17_02h22.15.586,Tarea de clasificación semántica,2024.2.5,MacIntel,57.80346821,,,,,,,,,,,,,,,,,,,,,,,233.3013,234.6727,s,1,0.6987,,0.6987,1,234.6728,235.1777,,235.1779,235.1781,-0.111754964,-0.398321601,0,0,0,,0,7,7,362,1,363,MAS,DIS,150,0,pasado,la,6,,,,,
,,,,,,,6e964b5132c2ea0222cac9fd,67d30250bc6dd184d4aaad81,67d7e9a6201df410f7a7df5f,2025-03-17_02h22.15.586,Tarea de clasificación semántica,2024.2.5,MacIntel,57.80346821,,,,,,,,,,,,,,,,,,,,,,,235.1797,236.3425,l,1,0.49,,0.49,1,236.3425,236.8329,,236.8342,236.8355,-0.111754964,-0.398321601,0,0,0,,0,8,8,419,1,420,FEM,AGR,150,1,gata,la,4,,,,,
,,,,,,,6e964b5132c2ea0222cac9fd,67d30250bc6dd184d4aaad81,67d7e9a6201df410f7a7df5f,2025-03-17_02h22.15.586,Tarea de clasificación semántica,2024.2.5,MacIntel,57.80346821,,,,,,,,,,,,,,,,,,,,,,,236.8365,238.3148,s,1,0.8065,,0.8065,1,238.3148,238.8134,,238.8136,238.8138,-0.111754964,-0.398321601,0,0,0,,0,9,9,181,1,182,FEM,AGR,150,0,altura,la,6,,,,,
,,,,,,,6e964b5132c2ea0222cac9fd,67d30250bc6dd184d4aaad81,67d7e9a6201df410f7a7df5f,2025-03-17_02h22.15.586,Tarea de clasificación semántica,2024.2.5,MacIntel,57.80346821,,,,,,,,,,,,,,,,,,,,,,,238.815,240.1678,l,1,0.6826,,0.6826,1,240.1685,240.6615,,240.6615,240.6617,-0.111754964,-0.398321601,0,0,0,,0,10,10,486,1,487,MAS,DIS,150,1,ganso,la,5,,,,,
,,,,,,,6e964b5132c2ea0222cac9fd,67d30250bc6dd184d4aaad81,67d7e9a6201df410f7a7df5f,2025-03-17_02h22.15.586,Tarea de clasificación semántica,2024.2.5,MacIntel,57.80346821,,,,,,,,,,,,,,,,,,,,,,,240.6633,241.944,s,1,0.5902,,0.5902,1,241.9441,242.4482,,242.4483,242.4485,-0.111754964,-0.398321601,0,0,0,,0,11,11,125,1,126,FEM,AGR,150,0,barba,la,5,,,,,
,,,,,,,6e964b5132c2ea0222cac9fd,67d30250bc6dd184d4aaad81,67d7e9a6201df410f7a7df5f,2025-03-17_02h22.15.586,Tarea de clasificación semántica,2024.2.5,MacIntel,57.80346821,,,,,,,,,,,,,,,,,,,,,,,242.4497,243.675,s,1,0.5527,,0.5527,1,243.675,244.1923,,244.1925,244.1926,-0.111754964,-0.398321601,0,0,0,,0,12,12,120,1,121,FEM,DIS,150,0,prima,el,5,,,,,
,,,,,,,6e964b5132c2ea0222cac9fd,67d30250bc6dd184d4aaad81,67d7e9a6201df410f7a7df5f,2025-03-17_02h22.15.586,Tarea de clasificación semántica,2024.2.5,MacIntel,57.80346821,,,,,,,,,,,,,,,,,,,,,,,244.194,245.6753,s,1,0.8013,,0.8013,1,245.6754,246.1792,,246.1805,246.1821,-0.111754964,-0.398321601,0,0,0,,0,13,13,367,1,368,MAS,AGR,150,0,anillo,el,6,,,,,
,,,,,,,6e964b5132c2ea0222cac9fd,67d30250bc6dd184d4aaad81,67d7e9a6201df410f7a7df5f,2025-03-17_02h22.15.586,Tarea de clasificación semántica,2024.2.5,MacIntel,57.80346821,,,,,,,,,,,,,,,,,,,,,,,246.1832,247.427,s,1,0.57,,0.57,1,247.4271,247.9237,,247.9238,247.9239,-0.111754964,-0.398321601,0,0,0,,0,14,14,85,1,86,FEM,AGR,150,0,prisa,la,5,,,,,
,,,,,,,6e964b5132c2ea0222cac9fd,67d30250bc6dd184d4aaad81,67d7e9a6201df410f7a7df5f,2025-03-17_02h22.15.586,Tarea de clasificación semántica,2024.2.5,MacIntel,57.80346821,,,,,,,,,,,,,,,,,,,,,,,247.9252,249.6554,s,1,1.0541,,1.0541,1,249.6557,250.1554,,250.1555,250.1557,-0.111754964,-0.398321601,0,0,0,,0,15,15,349,1,350,MAS,AGR,150,0,equipo,el,6,,,,,
,,,,,,,6e964b5132c2ea0222cac9fd,67d30250bc6dd184d4aaad81,67d7e9a6201df410f7a7df5f,2025-03-17_02h22.15.586,Tarea de clasificación semántica,2024.2.5,MacIntel,57.80346821,,,,,,,,,,,,,,,,,,,,,,,250.1581,251.363,s,1,0.5331,,0.5331,1,251.3631,251.8537,,251.8538,251.8539,-0.111754964,-0.398321601,0,0,0,,0,16,16,78,1,79,FEM,DIS,150,0,vista,el,5,,,,,
,,,,,,,6e964b5132c2ea0222cac9fd,67d30250bc6dd184d4aaad81,67d7e9a6201df410f7a7df5f,2025-03-17_02h22.15.586,Tarea de clasificación semántica,2024.2.5,MacIntel,57.80346821,,,,,,,,,,,,,,,,,,,,,,,251.8551,253.1194,l,1,0.5815,,0.5815,1,253.1195,253.6194,,253.6195,253.6196,-0.111754964,-0.398321601,0,0,0,,0,17,17,423,1,424,FEM,AGR,150,1,loba,la,4,,,,,
,,,,,,,6e964b5132c2ea0222cac9fd,67d30250bc6dd184d4aaad81,67d7e9a6201df410f7a7df5f,2025-03-17_02h22.15.586,Tarea de clasificación semántica,2024.2.5,MacIntel,57.80346821,,,,,,,,,,,,,,,,,,,,,,,253.6207,254.8686,s,1,0.5694,,0.5694,1,254.8687,255.34,,255.3401,255.3401,-0.111754964,-0.398321601,0,0,0,,0,18,18,415,1,416,MAS,AGR,150,0,aceite,el,6,,,,,
,,,,,,,6e964b5132c2ea0222cac9fd,67d30250bc6dd184d4aaad81,67d7e9a6201df410f7a7df5f,2025-03-17_02h22.15.586,Tarea de clasificación semántica,2024.2.5,MacIntel,57.80346821,,,,,,,,,,,,,,,,,,,,,,,255.3414,256.7335,l,1,0.7264,,0.7264,1,256.7336,257.2346,,257.2362,257.2379,-0.111754964,-0.398321601,0,0,0,,0,19,19,465,1,466,FEM,AGR,150,1,hiena,la,5,,,,,
,,,,,,,6e964b5132c2ea0222cac9fd,67d30250bc6dd184d4aaad81,67d7e9a6201df410f7a7df5f,2025-03-17_02h22.15.586,Tarea de clasificación semántica,2024.2.5,MacIntel,57.80346821,,,,,,,,,,,,,,,,,,,,,,,257.2402,258.4674,l,1,0.5583,,0.5583,1,258.4675,258.9683,,258.9684,258.9685,-0.111754964,-0.398321601,0,0,0,,0,20,20,446,1,447,FEM,DIS,150,1,avispa,el,6,,,,,
,,,,,,,6e964b5132c2ea0222cac9fd,67d30250bc6dd184d4aaad81,67d7e9a6201df410f7a7df5f,2025-03-17_02h22.15.586,Tarea de clasificación semántica,2024.2.5,MacIntel,57.80346821,,,,,,,,,,,,,,,,,,,,,,,258.9698,260.1308,s,1,0.4748,,0.4748,1,260.1308,260.6334,,260.6334,260.6336,-0.111754964,-0.398321601,0,0,0,,0,21,21,350,1,351,MAS,DIS,150,0,cuerpo,la,6,,,,,
,,,,,,,6e964b5132c2ea0222cac9fd,67d30250bc6dd184d4aaad81,67d7e9a6201df410f7a7df5f,2025-03-17_02h22.15.586,Tarea de clasificación semántica,2024.2.5,MacIntel,57.80346821,,,,,,,,,,,,,,,,,,,,,,,260.6347,262.083,s,1,0.7673,,0.7673,1,262.0831,262.5797,,262.5798,262.58,-0.111754964,-0.398321601,0,0,0,,0,22,22,342,1,343,MAS,DIS,150,0,rumbo,la,5,,,,,
,,,,,,,6e964b5132c2ea0222cac9fd,67d30250bc6dd184d4aaad81,67d7e9a6201df410f7a7df5f,2025-03-17_02h22.15.586,Tarea de clasificación semántica,2024.2.5,MacIntel,57.80346821,,,,,,,,,,,,,,,,,,,,,,,262.5819,264.3614,s,1,1.1104,,1.1104,1,264.3615,264.862,,264.8621,264.8623,-0.111754964,-0.398321601,0,0,0,,0,23,23,62,1,63,FEM,DIS,150,0,rama,el,4,,,,,
,,,,,,,6e964b5132c2ea0222cac9fd,67d30250bc6dd184d4aaad81,67d7e9a6201df410f7a7df5f,2025-03-17_02h22.15.586,Tarea de clasificación semántica,2024.2.5,MacIntel,57.80346821,,,,,,,,,,,,,,,,,,,,,,,264.8636,266.177,s,1,0.6507,,0.6507,1,266.177,266.6662,,266.6663,266.6665,-0.111754964,-0.398321601,0,0,0,,0,24,24,130,1,131,FEM,DIS,150,0,presa,el,5,,,,,
,,,,,,,6e964b5132c2ea0222cac9fd,67d30250bc6dd184d4aaad81,67d7e9a6201df410f7a7df5f,2025-03-17_02h22.15.586,Tarea de clasificación semántica,2024.2.5,MacIntel,57.80346821,,,,,,,,,,,,,,,,,,,,,,,266.6677,268.176,l,0,0.8185,,0.8185,0,268.1767,268.6763,,268.6777,268.6804,-0.111754964,-0.398321601,0,0,0,,0,25,25,247,1,248,MAS,AGR,150,0,cabo,el,4,,,,,
,,,,,,,6e964b5132c2ea0222cac9fd,67d30250bc6dd184d4aaad81,67d7e9a6201df410f7a7df5f,2025-03-17_02h22.15.586,Tarea de clasificación semántica,2024.2.5,MacIntel,57.80346821,,,,,,,,,,,,,,,,,,,,,,,268.6818,269.9585,s,1,0.5974,,0.5974,1,269.9596,270.4578,,270.4578,270.4579,-0.111754964,-0.398321601,0,0,0,,0,26,26,299,1,300,MAS,AGR,150,0,papel,el,5,,,,,
,,,,,,,6e964b5132c2ea0222cac9fd,67d30250bc6dd184d4aaad81,67d7e9a6201df410f7a7df5f,2025-03-17_02h22.15.586,Tarea de clasificación semántica,2024.2.5,MacIntel,57.80346821,,,,,,,,,,,,,,,,,,,,,,,270.4591,271.6735,s,1,0.4916,,0.4916,1,271.6736,272.1615,,272.1615,272.1618,-0.111754964,-0.398321601,0,0,0,,0,27,27,70,1,71,FEM,DIS,150,0,gente,el,5,,,,,
,,,,,,,6e964b5132c2ea0222cac9fd,67d30250bc6dd184d4aaad81,67d7e9a6201df410f7a7df5f,2025-03-17_02h22.15.586,Tarea de clasificación semántica,2024.2.5,MacIntel,57.80346821,,,,,,,,,,,,,,,,,,,,,,,272.1633,273.5562,s,1,0.7237,,0.7237,1,273.5563,274.0579,,274.058,274.058,-0.111754964,-0.398321601,0,0,0,,0,28,28,191,1,192,FEM,AGR,150,0,actriz,la,6,,,,,
,,,,,,,6e964b5132c2ea0222cac9fd,67d30250bc6dd184d4aaad81,67d7e9a6201df410f7a7df5f,2025-03-17_02h22.15.586,Tarea de clasificación semántica,2024.2.5,MacIntel,57.80346821,,,,,,,,,,,,,,,,,,,,,,,274.0592,275.4706,s,1,0.7401,,0.7401,1,275.4706,275.9728,,275.9729,275.9736,-0.111754964,-0.398321601,0,0,0,,0,29,29,162,1,163,FEM,DIS,150,0,prensa,el,6,,,,,
,,,,,,,6e964b5132c2ea0222cac9fd,67d30250bc6dd184d4aaad81,67d7e9a6201df410f7a7df5f,2025-03-17_02h22.15.586,Tarea de clasificación semántica,2024.2.5,MacIntel,57.80346821,,,,,,,,,,,,,,,,,,,,,,,275.9749,277.1124,s,1,0.4597,,0.4597,1,277.1125,277.6037,,277.6052,277.6065,-0.111754964,-0.398321601,0,0,0,,0,30,30,256,1,257,MAS,DIS,150,0,menú,la,4,,,,,
,,,,,,,6e964b5132c2ea0222cac9fd,67d30250bc6dd184d4aaad81,67d7e9a6201df410f7a7df5f,2025-03-17_02h22.15.586,Tarea de clasificación semántica,2024.2.5,MacIntel,57.80346821,,,,,,,,,,,,,,,,,,,,,,,277.6077,278.6862,s,1,0.4022,,0.4022,1,278.6864,279.1851,,279.1852,279.1852,-0.111754964,-0.398321601,0,0,0,,0,31,31,237,1,238,MAS,AGR,150,0,palo,el,4,,,,,
,,,,,,,6e964b5132c2ea0222cac9fd,67d30250bc6dd184d4aaad81,67d7e9a6201df410f7a7df5f,2025-03-17_02h22.15.586,Tarea de clasificación semántica,2024.2.5,MacIntel,57.80346821,,,,,,,,,,,,,,,,,,,,,,,279.1862,280.3574,s,1,0.5083,,0.5083,1,280.3576,280.8596,,280.8597,280.8598,-0.111754964,-0.398321601,0,0,0,,0,32,32,23,1,24,FEM,AGR,150,0,isla,la,4,,,,,
,,,,,,,6e964b5132c2ea0222cac9fd,67d30250bc6dd184d4aaad81,67d7e9a6201df410f7a7df5f,2025-03-17_02h22.15.586,Tarea de clasificación semántica,2024.2.5,MacIntel,57.80346821,,,,,,,,,,,,,,,,,,,,,,,280.8611,282.1139,s,1,0.5811,,0.5811,1,282.1141,282.6017,,282.6017,282.6019,-0.111754964,-0.398321601,0,0,0,,0,33,33,32,1,33,FEM,DIS,150,0,fila,el,4,,,,,
,,,,,,,6e964b5132c2ea0222cac9fd,67d30250bc6dd184d4aaad81,67d7e9a6201df410f7a7df5f,2025-03-17_02h22.15.586,Tarea de clasificación semántica,2024.2.5,MacIntel,57.80346821,,,,,,,,,,,,,,,,,,,,,,,282.603,283.717,l,0,0.4385,,0.4385,0,283.718,284.2186,,284.2186,284.2188,-0.111754964,-0.398321601,0,0,0,,0,34,34,251,1,252,MAS,AGR,150,0,coro,el,4,,,,,
,,,,,,,6e964b5132c2ea0222cac9fd,67d30250bc6dd184d4aaad81,67d7e9a6201df410f7a7df5f,2025-03-17_02h22.15.586,Tarea de clasificación semántica,2024.2.5,MacIntel,57.80346821,,,,,,,,,,,,,,,,,,,,,,,284.2202,285.3958,s,1,0.4941,,0.4941,1,285.3974,285.9027,,285.9028,285.9029,-0.111754964,-0.398321601,0,0,0,,0,35,35,153,1,154,FEM,AGR,150,0,cárcel,la,6,,,,,
,,,,,,,6e964b5132c2ea0222cac9fd,67d30250bc6dd184d4aaad81,67d7e9a6201df410f7a7df5f,2025-03-17_02h22.15.586,Tarea de clasificación semántica,2024.2.5,MacIntel,57.80346821,,,,,,,,,,,,,,,,,,,,,,,285.9045,287.1975,s,1,0.626,,0.626,1,287.1975,287.6998,,287.701,287.7028,-0.111754964,-0.398321601,0,0,0,,0,36,36,182,1,183,FEM,DIS,150,0,maleta,el,6,,,,,
,,,,,,,6e964b5132c2ea0222cac9fd,67d30250bc6dd184d4aaad81,67d7e9a6201df410f7a7df5f,2025-03-17_02h22.15.586,Tarea de clasificación semántica,2024.2.5,MacIntel,57.80346821,,,,,,,,,,,,,,,,,,,,,,,287.704,289.166,s,1,0.7735,,0.7735,1,289.1661,289.664,,289.664,289.6641,-0.111754964,-0.398321601,0,0,0,,0,37,37,227,1,228,MAS,AGR,150,0,odio,el,4,,,,,
,,,,,,,6e964b5132c2ea0222cac9fd,67d30250bc6dd184d4aaad81,67d7e9a6201df410f7a7df5f,2025-03-17_02h22.15.586,Tarea de clasificación semántica,2024.2.5,MacIntel,57.80346821,,,,,,,,,,,,,,,,,,,,,,,289.6653,290.9604,s,1,0.6172,,0.6172,1,290.9605,291.4486,,291.4487,291.4488,-0.111754964,-0.398321601,0,0,0,,0,38,38,393,1,394,MAS,AGR,150,0,abrigo,el,6,,,,,
,,,,,,,6e964b5132c2ea0222cac9fd,67d30250bc6dd184d4aaad81,67d7e9a6201df410f7a7df5f,2025-03-17_02h22.15.586,Tarea de clasificación semántica,2024.2.5,MacIntel,57.80346821,,,,,,,,,,,,,,,,,,,,,,,291.4499,292.4861,s,0,0.3552,,0.3552,0,292.4872,292.976,,292.9761,292.9762,-0.111754964,-0.398321601,0,0,0,,0,39,39,489,1,490,MAS,AGR,150,1,lobo,el,4,,,,,
,,,,,,,6e964b5132c2ea0222cac9fd,67d30250bc6dd184d4aaad81,67d7e9a6201df410f7a7df5f,2025-03-17_02h22.15.586,Tarea de clasificación semántica,2024.2.5,MacIntel,57.80346821,,,,,,,,,,,,,,,,,,,,,,,292.9778,294.1582,s,1,0.5151,,0.5151,1,294.1589,294.6493,,294.6494,294.6496,-0.111754964,-0.398321601,0,0,0,,0,40,40,358,1,359,MAS,DIS,150,0,estado,la,6,,,,,
,,,,,,,6e964b5132c2ea0222cac9fd,67d30250bc6dd184d4aaad81,67d7e9a6201df410f7a7df5f,2025-03-17_02h22.15.586,Tarea de clasificación semántica,2024.2.5,MacIntel,57.80346821,,,,,,,,,,,,,,,,,,,,,,,294.651,295.8638,s,1,0.4206,,0.4206,1,295.8639,296.358,,296.3602,296.3621,-0.111754964,-0.398321601,0,0,0,,0,41,41,269,1,270,MAS,AGR,150,0,lodo,el,4,,,,,
,,,,,,,6e964b5132c2ea0222cac9fd,67d30250bc6dd184d4aaad81,67d7e9a6201df410f7a7df5f,2025-03-17_02h22.15.586,Tarea de clasificación semántica,2024.2.5,MacIntel,57.80346821,,,,,,,,,,,,,,,,,,,,,,,296.3633,297.4127,s,1,0.3639,,0.3639,1,297.4128,297.9114,,297.9114,297.9115,-0.111754964,-0.398321601,0,0,0,,0,42,42,169,1,170,FEM,AGR,150,0,unidad,la,6,,,,,
,,,,,,,6e964b5132c2ea0222cac9fd,67d30250bc6dd184d4aaad81,67d7e9a6201df410f7a7df5f,2025-03-17_02h22.15.586,Tarea de clasificación semántica,2024.2.5,MacIntel,57.80346821,,,,,,,,,,,,,,,,,,,,,,,297.9126,299.0727,s,1,0.4882,,0.4882,1,299.0727,299.5735,,299.5736,299.5737,-0.111754964,-0.398321601,0,0,0,,0,43,43,249,1,250,MAS,AGR,150,0,nido,el,4,,,,,
,,,,,,,6e964b5132c2ea0222cac9fd,67d30250bc6dd184d4aaad81,67d7e9a6201df410f7a7df5f,2025-03-17_02h22.15.586,Tarea de clasificación semántica,2024.2.5,MacIntel,57.80346821,,,,,,,,,,,,,,,,,,,,,,,299.5749,300.6828,s,1,0.4233,,0.4233,1,300.6829,301.1712,,301.1714,301.1716,-0.111754964,-0.398321601,0,0,0,,0,44,44,86,1,87,FEM,DIS,150,0,llave,el,5,,,,,
,,,,,,,6e964b5132c2ea0222cac9fd,67d30250bc6dd184d4aaad81,67d7e9a6201df410f7a7df5f,2025-03-17_02h22.15.586,Tarea de clasificación semántica,2024.2.5,MacIntel,57.80346821,,,,,,,,,,,,,,,,,,,,,,,301.1737,302.2368,s,1,0.3903,,0.3903,1,302.2369,302.7362,,302.7362,302.7364,-0.111754964,-0.398321601,0,0,0,,0,45,45,287,1,288,MAS,AGR,150,0,fuego,el,5,,,,,
,,,,,,,6e964b5132c2ea0222cac9fd,67d30250bc6dd184d4aaad81,67d7e9a6201df410f7a7df5f,2025-03-17_02h22.15.586,Tarea de clasificación semántica,2024.2.5,MacIntel,57.80346821,,,,,,,,,,,,,,,,,,,,,,,302.7382,303.9032,s,1,0.4851,,0.4851,1,303.9033,304.4068,,304.4069,304.407,-0.111754964,-0.398321601,0,0,0,,0,46,46,186,1,187,FEM,DIS,150,0,charla,el,6,,,,,
,,,,,,,6e964b5132c2ea0222cac9fd,67d30250bc6dd184d4aaad81,67d7e9a6201df410f7a7df5f,2025-03-17_02h22.15.586,Tarea de clasificación semántica,2024.2.5,MacIntel,57.80346821,,,,,,,,,,,,,,,,,,,,,,,304.4081,305.5495,s,1,0.4623,,0.4623,1,305.5497,306.0522,,306.0539,306.055,-0.111754964,-0.398321601,0,0,0,,0,47,47,396,1,397,MAS,DIS,150,0,jurado,la,6,,,,,
,,,,,,,6e964b5132c2ea0222cac9fd,67d30250bc6dd184d4aaad81,67d7e9a6201df410f7a7df5f,2025-03-17_02h22.15.586,Tarea de clasificación semántica,2024.2.5,MacIntel,57.80346821,,,,,,,,,,,,,,,,,,,,,,,306.0562,307.2001,l,1,0.463,,0.463,1,307.2002,307.7,,307.7001,307.7003,-0.111754964,-0.398321601,0,0,0,,0,48,48,517,1,518,MAS,AGR,150,1,koala,el,5,,,,,
,,,,,,,6e964b5132c2ea0222cac9fd,67d30250bc6dd184d4aaad81,67d7e9a6201df410f7a7df5f,2025-03-17_02h22.15.586,Tarea de clasificación semántica,2024.2.5,MacIntel,57.80346821,,,,,,,,,,,,,,,,,,,,,,,307.7022,308.7351,s,0,0.3554,,0.3554,0,308.736,309.2322,,309.2322,309.2323,-0.111754964,-0.398321601,0,0,0,,0,49,49,460,1,461,FEM,DIS,150,1,pulga,el,5,,,,,
,,,,,,,6e964b5132c2ea0222cac9fd,67d30250bc6dd184d4aaad81,67d7e9a6201df410f7a7df5f,2025-03-17_02h22.15.586,Tarea de clasificación semántica,2024.2.5,MacIntel,57.80346821,,,,,,,,,,,,,,,,,,,,,,,309.2329,310.365,s,1,0.4499,,0.4499,1,310.366,310.8555,,310.8558,310.856,-0.111754964,-0.398321601,0,0,0,,0,50,50,40,1,41,FEM,DIS,150,0,cruz,el,4,,,,,
,,,,,,,6e964b5132c2ea0222cac9fd,67d30250bc6dd184d4aaad81,67d7e9a6201df410f7a7df5f,2025-03-17_02h22.15.586,Tarea de clasificación semántica,2024.2.5,MacIntel,57.80346821,,,,,,,,,,,,,,,,,,,,,,,310.8579,312.2482,s,1,0.724,,0.724,1,312.2483,312.747,,312.7471,312.7473,-0.111754964,-0.398321601,0,0,0,,0,51,51,44,1,45,FEM,DIS,150,0,lata,el,4,,,,,
,,,,,,,6e964b5132c2ea0222cac9fd,67d30250bc6dd184d4aaad81,67d7e9a6201df410f7a7df5f,2025-03-17_02h22.15.586,Tarea de clasificación semántica,2024.2.5,MacIntel,57.80346821,,,,,,,,,,,,,,,,,,,,,,,312.7495,313.8786,s,0,0.4492,,0.4492,0,313.8794,314.3794,,314.3806,314.382,-0.111754964,-0.398321601,0,0,0,,0,52,52,524,1,525,MAS,DIS,150,1,lobo,la,4,,,,,
,,,,,,,6e964b5132c2ea0222cac9fd,67d30250bc6dd184d4aaad81,67d7e9a6201df410f7a7df5f,2025-03-17_02h22.15.586,Tarea de clasificación semántica,2024.2.5,MacIntel,57.80346821,,,,,,,,,,,,,,,,,,,,,,,314.383,315.6717,l,1,0.6035,,0.6035,1,315.6727,316.1769,,316.177,316.177,-0.111754964,-0.398321601,0,0,0,,0,53,53,470,1,471,FEM,DIS,150,1,abeja,el,5,,,,,
,,,,,,,6e964b5132c2ea0222cac9fd,67d30250bc6dd184d4aaad81,67d7e9a6201df410f7a7df5f,2025-03-17_02h22.15.586,Tarea de clasificación semántica,2024.2.5,MacIntel,57.80346821,,,,,,,,,,,,,,,,,,,,,,,316.1779,317.2435,s,1,0.4045,,0.4045,1,317.2437,317.7445,,317.7445,317.7446,-0.111754964,-0.398321601,0,0,0,,0,54,54,102,1,103,FEM,DIS,150,0,nieve,el,5,,,,,
,,,,,,,6e964b5132c2ea0222cac9fd,67d30250bc6dd184d4aaad81,67d7e9a6201df410f7a7df5f,2025-03-17_02h22.15.586,Tarea de clasificación semántica,2024.2.5,MacIntel,57.80346821,,,,,,,,,,,,,,,,,,,,,,,317.7464,318.8255,s,1,0.3995,,0.3995,1,318.8255,319.309,,319.3091,319.3092,-0.111754964,-0.398321601,0,0,0,,0,55,55,147,1,148,FEM,AGR,150,0,sangre,la,6,,,,,
,,,,,,,6e964b5132c2ea0222cac9fd,67d30250bc6dd184d4aaad81,67d7e9a6201df410f7a7df5f,2025-03-17_02h22.15.586,Tarea de clasificación semántica,2024.2.5,MacIntel,57.80346821,,,,,,,,,,,,,,,,,,,,,,,319.3105,320.412,s,1,0.424,,0.424,1,320.412,320.9061,,320.9062,320.9063,-0.111754964,-0.398321601,0,0,0,,0,56,56,339,1,340,MAS,AGR,150,0,patio,el,5,,,,,
,,,,,,,6e964b5132c2ea0222cac9fd,67d30250bc6dd184d4aaad81,67d7e9a6201df410f7a7df5f,2025-03-17_02h22.15.586,Tarea de clasificación semántica,2024.2.5,MacIntel,57.80346821,,,,,,,,,,,,,,,,,,,,,,,320.9076,321.9915,l,1,0.4185,,0.4185,1,321.9915,322.4906,,322.4907,322.4909,-0.111754964,-0.398321601,0,0,0,,0,57,57,532,1,533,MAS,DIS,150,1,perro,la,5,,,,,
,,,,,,,6e964b5132c2ea0222cac9fd,67d30250bc6dd184d4aaad81,67d7e9a6201df410f7a7df5f,2025-03-17_02h22.15.586,Tarea de clasificación semántica,2024.2.5,MacIntel,57.80346821,,,,,,,,,,,,,,,,,,,,,,,322.4923,323.5889,s,1,0.4174,,0.4174,1,323.589,324.0927,,324.0948,324.0963,-0.111754964,-0.398321601,0,0,0,,0,58,58,345,1,346,MAS,AGR,150,0,hombre,el,6,,,,,
,,,,,,,6e964b5132c2ea0222cac9fd,67d30250bc6dd184d4aaad81,67d7e9a6201df410f7a7df5f,2025-03-17_02h22.15.586,Tarea de clasificación semántica,2024.2.5,MacIntel,57.80346821,,,,,,,,,,,,,,,,,,,,,,,324.0974,325.2719,s,0,0.506,,0.506,0,325.2729,325.7753,,325.7754,325.7756,-0.111754964,-0.398321601,0,0,0,,0,59,59,476,1,477,FEM,DIS,150,1,gacela,el,6,,,,,
,,,,,,,6e964b5132c2ea0222cac9fd,67d30250bc6dd184d4aaad81,67d7e9a6201df410f7a7df5f,2025-03-17_02h22.15.586,Tarea de clasificación semántica,2024.2.5,MacIntel,57.80346821,,,,,,,,,,,,,,,,,,,,,,,325.7771,327.1538,s,0,0.7051,,0.7051,0,327.1539,327.6531,,327.6533,327.6534,-0.111754964,-0.398321601,0,0,0,,0,60,60,473,1,474,FEM,AGR,150,1,liebre,la,6,,,,,
,,,,,,,6e964b5132c2ea0222cac9fd,67d30250bc6dd184d4aaad81,67d7e9a6201df410f7a7df5f,2025-03-17_02h22.15.586,Tarea de clasificación semántica,2024.2.5,MacIntel,57.80346821,,,,,,,,,,,,,,,,,,,,,,,327.6552,329.0173,s,1,0.6986,,0.6986,1,329.0193,329.5192,,329.5194,329.5195,-0.111754964,-0.398321601,0,0,0,,0,61,61,171,1,172,FEM,AGR,150,0,gracia,la,6,,,,,
,,,,,,,6e964b5132c2ea0222cac9fd,67d30250bc6dd184d4aaad81,67d7e9a6201df410f7a7df5f,2025-03-17_02h22.15.586,Tarea de clasificación semántica,2024.2.5,MacIntel,57.80346821,,,,,,,,,,,,,,,,,,,,,,,329.5219,330.668,s,1,0.464,,0.464,1,330.6681,331.1573,,331.1574,331.1576,-0.111754964,-0.398321601,0,0,0,,0,62,62,272,1,273,MAS,DIS,150,0,nudo,la,4,,,,,
,,,,,,,6e964b5132c2ea0222cac9fd,67d30250bc6dd184d4aaad81,67d7e9a6201df410f7a7df5f,2025-03-17_02h22.15.586,Tarea de clasificación semántica,2024.2.5,MacIntel,57.80346821,,,,,,,,,,,,,,,,,,,,,,,331.1589,332.2342,l,1,0.3879,,0.3879,1,332.2343,332.7339,,332.7352,332.7364,-0.111754964,-0.398321601,0,0,0,,0,63,63,425,1,426,FEM,AGR,150,1,pulga,la,5,,,,,
,,,,,,,6e964b5132c2ea0222cac9fd,67d30250bc6dd184d4aaad81,67d7e9a6201df410f7a7df5f,2025-03-17_02h22.15.586,Tarea de clasificación semántica,2024.2.5,MacIntel,57.80346821,,,,,,,,,,,,,,,,,,,,,,,332.7375,333.839,s,1,0.4393,,0.4393,1,333.8391,334.3321,,334.3323,334.3323,-0.111754964,-0.398321601,0,0,0,,0,64,64,4,1,5,FEM,DIS,150,0,idea,el,4,,,,,
,,,,,,,6e964b5132c2ea0222cac9fd,67d30250bc6dd184d4aaad81,67d7e9a6201df410f7a7df5f,2025-03-17_02h22.15.586,Tarea de clasificación semántica,2024.2.5,MacIntel,57.80346821,,,,,,,,,,,,,,,,,,,,,,,334.3338,335.501,s,1,0.4843,,0.4843,1,335.5011,335.9983,,335.9984,335.9986,-0.111754964,-0.398321601,0,0,0,,0,65,65,17,1,18,FEM,AGR,150,0,boda,la,4,,,,,
,,,,,,,6e964b5132c2ea0222cac9fd,67d30250bc6dd184d4aaad81,67d7e9a6201df410f7a7df5f,2025-03-17_02h22.15.586,Tarea de clasificación semántica,2024.2.5,MacIntel,57.80346821,,,,,,,,,,,,,,,,,,,,,,,336.001,337.0643,s,1,0.3927,,0.3927,1,337.0644,337.5563,,337.5564,337.5565,-0.111754964,-0.398321601,0,0,0,,0,66,66,222,1,223,MAS,DIS,150,0,taxi,la,4,,,,,
,,,,,,,6e964b5132c2ea0222cac9fd,67d30250bc6dd184d4aaad81,67d7e9a6201df410f7a7df5f,2025-03-17_02h22.15.586,Tarea de clasificación semántica,2024.2.5,MacIntel,57.80346821,,,,,,,,,,,,,,,,,,,,,,,337.5577,338.7302,l,1,0.498,,0.498,1,338.7302,339.2449,,339.245,339.245,-0.111754964,-0.398321601,0,0,0,,0,67,67,417,1,418,FEM,AGR,150,1,foca,la,4,,,,,
,,,,,,,6e964b5132c2ea0222cac9fd,67d30250bc6dd184d4aaad81,67d7e9a6201df410f7a7df5f,2025-03-17_02h22.15.586,Tarea de clasificación semántica,2024.2.5,MacIntel,57.80346821,,,,,,,,,,,,,,,,,,,,,,,339.2458,340.3289,s,1,0.4154,,0.4154,1,340.3292,340.8285,,340.8288,340.829,-0.111754964,-0.398321601,0,0,0,,0,68,68,80,1,81,FEM,DIS,150,0,mitad,el,5,,,,,
,,,,,,,6e964b5132c2ea0222cac9fd,67d30250bc6dd184d4aaad81,67d7e9a6201df410f7a7df5f,2025-03-17_02h22.15.586,Tarea de clasificación semántica,2024.2.5,MacIntel,57.80346821,,,,,,,,,,,,,,,,,,,,,,,340.8316,341.9771,s,1,0.4635,,0.4635,1,341.9772,342.4658,,342.4674,342.4686,-0.111754964,-0.398321601,0,0,0,,0,69,69,285,1,286,MAS,AGR,150,0,punto,el,5,,,,,
,,,,,,,6e964b5132c2ea0222cac9fd,67d30250bc6dd184d4aaad81,67d7e9a6201df410f7a7df5f,2025-03-17_02h22.15.586,Tarea de clasificación semántica,2024.2.5,MacIntel,57.80346821,,,,,,,,,,,,,,,,,,,,,,,342.4698,343.6377,s,1,0.5016,,0.5016,1,343.6378,344.1349,,344.1352,344.1355,-0.111754964,-0.398321601,0,0,0,,0,70,70,243,1,244,MAS,AGR,150,0,tubo,el,4,,,,,
,,,,,,,6e964b5132c2ea0222cac9fd,67d30250bc6dd184d4aaad81,67d7e9a6201df410f7a7df5f,2025-03-17_02h22.15.586,Tarea de clasificación semántica,2024.2.5,MacIntel,57.80346821,,,,,,,,,,,,,,,,,,,,,,,344.1367,345.2454,s,1,0.4357,,0.4357,1,345.2455,345.7241,,345.7241,345.7242,-0.111754964,-0.398321601,0,0,0,,0,71,71,274,1,275,MAS,DIS,150,0,padre,la,5,,,,,
,,,,,,,6e964b5132c2ea0222cac9fd,67d30250bc6dd184d4aaad81,67d7e9a6201df410f7a7df5f,2025-03-17_02h22.15.586,Tarea de clasificación semántica,2024.2.5,MacIntel,57.80346821,,,,,,,,,,,,,,,,,,,,,,,345.7247,346.9026,s,1,0.3979,,0.3979,1,346.9027,347.3906,,347.3907,347.3908,-0.111754964,-0.398321601,0,0,0,,0,72,72,121,1,122,FEM,AGR,150,0,barra,la,5,,,,,
,,,,,,,6e964b5132c2ea0222cac9fd,67d30250bc6dd184d4aaad81,67d7e9a6201df410f7a7df5f,2025-03-17_02h22.15.586,Tarea de clasificación semántica,2024.2.5,MacIntel,57.80346821,,,,,,,,,,,,,,,,,,,,,,,347.3922,348.4455,s,1,0.373,,0.373,1,348.4456,348.9388,,348.9389,348.939,-0.111754964,-0.398321601,0,0,0,,0,73,73,72,1,73,FEM,DIS,150,0,madre,el,5,,,,,
,,,,,,,6e964b5132c2ea0222cac9fd,67d30250bc6dd184d4aaad81,67d7e9a6201df410f7a7df5f,2025-03-17_02h22.15.586,Tarea de clasificación semántica,2024.2.5,MacIntel,57.80346821,,,,,,,,,,,,,,,,,,,,,,,348.9401,349.9927,s,1,0.3735,,0.3735,1,349.9929,350.4878,,350.488,350.4881,-0.111754964,-0.398321601,0,0,0,,0,74,74,314,1,315,MAS,DIS,150,0,norte,la,5,,,,,
,,,,,,,6e964b5132c2ea0222cac9fd,67d30250bc6dd184d4aaad81,67d7e9a6201df410f7a7df5f,2025-03-17_02h22.15.586,Tarea de clasificación semántica,2024.2.5,MacIntel,57.80346821,,,,,,,,,,,,,,,,,,,,,,,350.4896,351.7043,l,1,0.5453,,0.5453,1,351.7044,352.2053,,352.2069,352.2086,-0.111754964,-0.398321601,0,0,0,,0,75,75,531,1,532,MAS,AGR,150,1,atún,el,4,,,,,
,,,,,,,6e964b5132c2ea0222cac9fd,67d30250bc6dd184d4aaad81,67d7e9a6201df410f7a7df5f,2025-03-17_02h22.15.586,Tarea de clasificación semántica,2024.2.5,MacIntel,57.80346821,,,,,,,,,,,,,,,,,,,,,,,352.2098,353.253,l,1,0.371,,0.371,1,353.2531,353.7533,,353.7534,353.7536,-0.111754964,-0.398321601,0,0,0,,0,76,76,521,1,522,MAS,AGR,150,1,ganso,el,5,,,,,
,,,,,,,6e964b5132c2ea0222cac9fd,67d30250bc6dd184d4aaad81,67d7e9a6201df410f7a7df5f,2025-03-17_02h22.15.586,Tarea de clasificación semántica,2024.2.5,MacIntel,57.80346821,,,,,,,,,,,,,,,,,,,,,,,353.7549,354.8289,s,1,0.4122,,0.4122,1,354.8291,355.3188,,355.3189,355.3189,-0.111754964,-0.398321601,0,0,0,,0,77,77,226,1,227,MAS,DIS,150,0,hijo,la,4,,,,,
,,,,,,,6e964b5132c2ea0222cac9fd,67d30250bc6dd184d4aaad81,67d7e9a6201df410f7a7df5f,2025-03-17_02h22.15.586,Tarea de clasificación semántica,2024.2.5,MacIntel,57.80346821,,,,,,,,,,,,,,,,,,,,,,,355.3204,356.2848,s,1,0.3009,,0.3009,1,356.2849,356.7476,,356.7477,356.748,-0.111754964,-0.398321601,0,0,0,,0,78,78,137,1,138,FEM,AGR,150,0,lucha,la,5,,,,,
,,,,,,,6e964b5132c2ea0222cac9fd,67d30250bc6dd184d4aaad81,67d7e9a6201df410f7a7df5f,2025-03-17_02h22.15.586,Tarea de clasificación semántica,2024.2.5,MacIntel,57.80346821,,,,,,,,,,,,,,,,,,,,,,,356.7496,357.9497,s,1,0.4597,,0.4597,1,357.9504,358.449,,358.4492,358.4493,-0.111754964,-0.398321601,0,0,0,,0,79,79,337,1,338,MAS,AGR,150,0,grado,el,5,,,,,
,,,,,,,6e964b5132c2ea0222cac9fd,67d30250bc6dd184d4aaad81,67d7e9a6201df410f7a7df5f,2025-03-17_02h22.15.586,Tarea de clasificación semántica,2024.2.5,MacIntel,57.80346821,,,,,,,,,,,,,,,,,,,,,,,358.4504,359.8516,s,1,0.7299,,0.7299,1,359.8518,360.3502,,360.3516,360.3529,-0.111754964,-0.398321601,0,0,0,,0,80,80,93,1,94,FEM,AGR,150,0,silla,la,5,,,,,
,,,,,,,6e964b5132c2ea0222cac9fd,67d30250bc6dd184d4aaad81,67d7e9a6201df410f7a7df5f,2025-03-17_02h22.15.586,Tarea de clasificación semántica,2024.2.5,MacIntel,57.80346821,,,,,,,,,,,,,,,,,,,,,,,360.3539,361.5314,l,1,0.4916,,0.4916,1,361.5315,362.031,,362.0311,362.0313,-0.111754964,-0.398321601,0,0,0,,0,81,81,462,1,463,FEM,DIS,150,1,ostra,el,5,,,,,
,,,,,,,6e964b5132c2ea0222cac9fd,67d30250bc6dd184d4aaad81,67d7e9a6201df410f7a7df5f,2025-03-17_02h22.15.586,Tarea de clasificación semántica,2024.2.5,MacIntel,57.80346821,,,,,,,,,,,,,,,,,,,,,,,362.033,363.1301,s,1,0.4257,,0.4257,1,363.1302,363.6306,,363.6308,363.6309,-0.111754964,-0.398321601,0,0,0,,0,82,82,73,1,74,FEM,AGR,150,0,chica,la,5,,,,,
,,,,,,,6e964b5132c2ea0222cac9fd,67d30250bc6dd184d4aaad81,67d7e9a6201df410f7a7df5f,2025-03-17_02h22.15.586,Tarea de clasificación semántica,2024.2.5,MacIntel,57.80346821,,,,,,,,,,,,,,,,,,,,,,,363.6324,364.8119,s,1,0.5182,,0.5182,1,364.8119,365.3154,,365.3156,365.3158,-0.111754964,-0.398321601,0,0,0,,0,83,83,45,1,46,FEM,AGR,150,0,capa,la,4,,,,,
,,,,,,,6e964b5132c2ea0222cac9fd,67d30250bc6dd184d4aaad81,67d7e9a6201df410f7a7df5f,2025-03-17_02h22.15.586,Tarea de clasificación semántica,2024.2.5,MacIntel,57.80346821,,,,,,,,,,,,,,,,,,,,,,,365.3171,366.527,s,1,0.5387,,0.5387,1,366.5272,367.0284,,367.0284,367.0287,-0.111754964,-0.398321601,0,0,0,,0,84,84,189,1,190,FEM,AGR,150,0,moneda,la,6,,,,,
,,,,,,,6e964b5132c2ea0222cac9fd,67d30250bc6dd184d4aaad81,67d7e9a6201df410f7a7df5f,2025-03-17_02h22.15.586,Tarea de clasificación semántica,2024.2.5,MacIntel,57.80346821,,,,,,,,,,,,,,,,,,,,,,,367.0305,368.1359,l,1,0.4188,,0.4188,1,368.1359,368.63,,368.6301,368.6302,-0.111754964,-0.398321601,0,0,0,,0,85,85,428,1,429,FEM,DIS,150,1,cobra,el,5,,,,,
,,,,,,,6e964b5132c2ea0222cac9fd,67d30250bc6dd184d4aaad81,67d7e9a6201df410f7a7df5f,2025-03-17_02h22.15.586,Tarea de clasificación semántica,2024.2.5,MacIntel,57.80346821,,,,,,,,,,,,,,,,,,,,,,,368.6312,369.7306,s,1,0.3673,,0.3673,1,369.7307,370.2266,,370.2278,370.2291,-0.111754964,-0.398321601,0,0,0,,0,86,86,5,1,6,FEM,AGR,150,0,mamá,la,4,,,,,
,,,,,,,6e964b5132c2ea0222cac9fd,67d30250bc6dd184d4aaad81,67d7e9a6201df410f7a7df5f,2025-03-17_02h22.15.586,Tarea de clasificación semántica,2024.2.5,MacIntel,57.80346821,,,,,,,,,,,,,,,,,,,,,,,370.2303,371.3237,s,1,0.4213,,0.4213,1,371.3237,371.8109,,371.811,371.8111,-0.111754964,-0.398321601,0,0,0,,0,87,87,195,1,196,FEM,AGR,150,0,rutina,la,6,,,,,
,,,,,,,6e964b5132c2ea0222cac9fd,67d30250bc6dd184d4aaad81,67d7e9a6201df410f7a7df5f,2025-03-17_02h22.15.586,Tarea de clasificación semántica,2024.2.5,MacIntel,57.80346821,,,,,,,,,,,,,,,,,,,,,,,371.8122,372.8793,s,0,0.3929,,0.3929,0,372.8808,373.3726,,373.3727,373.3728,-0.111754964,-0.398321601,0,0,0,,0,88,88,492,1,493,MAS,DIS,150,1,pato,la,4,,,,,
,,,,,,,6e964b5132c2ea0222cac9fd,67d30250bc6dd184d4aaad81,67d7e9a6201df410f7a7df5f,2025-03-17_02h22.15.586,Tarea de clasificación semántica,2024.2.5,MacIntel,57.80346821,,,,,,,,,,,,,,,,,,,,,,,373.3748,374.4889,l,1,0.4365,,0.4365,1,374.49,374.9888,,374.9889,374.9891,-0.111754964,-0.398321601,0,0,0,,0,89,89,421,1,422,FEM,AGR,150,1,vaca,la,4,,,,,
,,,,,,,6e964b5132c2ea0222cac9fd,67d30250bc6dd184d4aaad81,67d7e9a6201df410f7a7df5f,2025-03-17_02h22.15.586,Tarea de clasificación semántica,2024.2.5,MacIntel,57.80346821,,,,,,,,,,,,,,,,,,,,,,,374.9912,377.6297,,0,,,0.4365,-1,377.6307,378.1285,,378.1287,378.1288,-0.111754964,-0.398321601,0,0,0,,0,90,90,471,1,472,FEM,AGR,150,1,mosca,la,5,,,,,
,,,,,,,6e964b5132c2ea0222cac9fd,67d30250bc6dd184d4aaad81,67d7e9a6201df410f7a7df5f,2025-03-17_02h22.15.586,Tarea de clasificación semántica,2024.2.5,MacIntel,57.80346821,,,,,,,,,,,,,,,,,,,,,,,378.1302,379.2688,s,1,0.4694,,0.4694,1,379.2698,379.7725,,379.7737,379.7748,-0.111754964,-0.398321601,0,0,0,,0,91,91,26,1,27,FEM,DIS,150,0,bala,el,4,,,,,
,,,,,,,6e964b5132c2ea0222cac9fd,67d30250bc6dd184d4aaad81,67d7e9a6201df410f7a7df5f,2025-03-17_02h22.15.586,Tarea de clasificación semántica,2024.2.5,MacIntel,57.80346821,,,,,,,,,,,,,,,,,,,,,,,379.7761,380.7523,s,1,0.3047,,0.3047,1,380.7525,381.2513,,381.2513,381.2514,-0.111754964,-0.398321601,0,0,0,,0,92,92,252,1,253,MAS,DIS,150,0,test,la,4,,,,,
,,,,,,,6e964b5132c2ea0222cac9fd,67d30250bc6dd184d4aaad81,67d7e9a6201df410f7a7df5f,2025-03-17_02h22.15.586,Tarea de clasificación semántica,2024.2.5,MacIntel,57.80346821,,,,,,,,,,,,,,,,,,,,,,,381.253,382.2342,s,1,0.3133,,0.3133,1,382.2342,382.7391,,382.7391,382.7393,-0.111754964,-0.398321601,0,0,0,,0,93,93,280,1,281,MAS,DIS,150,0,coche,la,5,,,,,
,,,,,,,6e964b5132c2ea0222cac9fd,67d30250bc6dd184d4aaad81,67d7e9a6201df410f7a7df5f,2025-03-17_02h22.15.586,Tarea de clasificación semántica,2024.2.5,MacIntel,57.80346821,,,,,,,,,,,,,,,,,,,,,,,382.7411,383.7928,l,0,0.3735,,0.3735,0,383.7941,384.2832,,384.2832,384.2834,-0.111754964,-0.398321601,0,0,0,,0,94,94,127,1,128,FEM,AGR,150,0,oreja,la,5,,,,,
,,,,,,,6e964b5132c2ea0222cac9fd,67d30250bc6dd184d4aaad81,67d7e9a6201df410f7a7df5f,2025-03-17_02h22.15.586,Tarea de clasificación semántica,2024.2.5,MacIntel,57.80346821,,,,,,,,,,,,,,,,,,,,,,,384.285,385.6486,l,0,0.6225,,0.6225,0,385.6486,386.1543,,386.1543,386.1547,-0.111754964,-0.398321601,0,0,0,,0,95,95,126,1,127,FEM,DIS,150,0,viuda,el,5,,,,,
,,,,,,,6e964b5132c2ea0222cac9fd,67d30250bc6dd184d4aaad81,67d7e9a6201df410f7a7df5f,2025-03-17_02h22.15.586,Tarea de clasificación semántica,2024.2.5,MacIntel,57.80346821,,,,,,,,,,,,,,,,,,,,,,,386.1557,387.2713,l,1,0.3716,,0.3716,1,387.2732,387.7652,,387.7654,387.7655,-0.111754964,-0.398321601,0,0,0,,0,96,96,552,1,553,MAS,DIS,150,1,koala,la,5,,,,,
,,,,,,,6e964b5132c2ea0222cac9fd,67d30250bc6dd184d4aaad81,67d7e9a6201df410f7a7df5f,2025-03-17_02h22.15.586,Tarea de clasificación semántica,2024.2.5,MacIntel,57.80346821,,,,,,,,,,,,,,,,,,,,,,,387.7674,388.7971,s,1,0.3676,,0.3676,1,388.7972,389.2999,,389.3013,389.303,-0.111754964,-0.398321601,0,0,0,,0,97,97,18,1,19,FEM,DIS,150,0,sala,el,4,,,,,
,,,,,,,6e964b5132c2ea0222cac9fd,67d30250bc6dd184d4aaad81,67d7e9a6201df410f7a7df5f,2025-03-17_02h22.15.586,Tarea de clasificación semántica,2024.2.5,MacIntel,57.80346821,,,,,,,,,,,,,,,,,,,,,,,389.3041,390.3657,s,1,0.4012,,0.4012,1,390.3658,390.8692,,390.8694,390.8695,-0.111754964,-0.398321601,0,0,0,,0,98,98,279,1,280,MAS,AGR,150,0,miedo,el,5,,,,,
,,,,,,,6e964b5132c2ea0222cac9fd,67d30250bc6dd184d4aaad81,67d7e9a6201df410f7a7df5f,2025-03-17_02h22.15.586,Tarea de clasificación semántica,2024.2.5,MacIntel,57.80346821,,,,,,,,,,,,,,,,,,,,,,,390.8707,392.1454,s,1,0.6004,,0.6004,1,392.1458,392.6438,,392.6438,392.644,-0.111754964,-0.398321601,0,0,0,,0,99,99,63,1,64,FEM,AGR,150,0,raíz,la,4,,,,,
,,,,,,,6e964b5132c2ea0222cac9fd,67d30250bc6dd184d4aaad81,67d7e9a6201df410f7a7df5f,2025-03-17_02h22.15.586,Tarea de clasificación semántica,2024.2.5,MacIntel,57.80346821,,,,,,,,,,,,,,,,,,,,,,,392.6456,393.7428,l,0,0.421,,0.421,0,393.7437,394.2464,,394.2465,394.2467,-0.111754964,-0.398321601,0,0,0,,0,100,100,265,1,266,MAS,AGR,150,0,velo,el,4,,,,,
,,,,,,,6e964b5132c2ea0222cac9fd,67d30250bc6dd184d4aaad81,67d7e9a6201df410f7a7df5f,2025-03-17_02h22.15.586,Tarea de clasificación semántica,2024.2.5,MacIntel,57.80346821,,,,,,,,,,,,,,,,,,,,,,,394.248,395.3243,s,1,0.4016,,0.4016,1,395.3255,395.8262,,395.8263,395.8263,-0.111754964,-0.398321601,0,0,0,,0,101,101,198,1,199,FEM,DIS,150,0,jugada,el,6,,,,,
,,,,,,,6e964b5132c2ea0222cac9fd,67d30250bc6dd184d4aaad81,67d7e9a6201df410f7a7df5f,2025-03-17_02h22.15.586,Tarea de clasificación semántica,2024.2.5,MacIntel,57.80346821,,,,,,,,,,,,,,,,,,,,,,,395.8275,397.094,s,1,0.593,,0.593,1,397.0941,397.6122,,397.6131,397.6143,-0.111754964,-0.398321601,0,0,0,,0,102,102,238,1,239,MAS,DIS,150,0,pozo,la,4,,,,,
,,,,,,,6e964b5132c2ea0222cac9fd,67d30250bc6dd184d4aaad81,67d7e9a6201df410f7a7df5f,2025-03-17_02h22.15.586,Tarea de clasificación semántica,2024.2.5,MacIntel,57.80346821,,,,,,,,,,,,,,,,,,,,,,,397.6153,398.6724,s,1,0.383,,0.383,1,398.6726,399.1723,,399.1723,399.1724,-0.111754964,-0.398321601,0,0,0,,0,103,103,271,1,272,MAS,AGR,150,0,amor,el,4,,,,,
,,,,,,,6e964b5132c2ea0222cac9fd,67d30250bc6dd184d4aaad81,67d7e9a6201df410f7a7df5f,2025-03-17_02h22.15.586,Tarea de clasificación semántica,2024.2.5,MacIntel,57.80346821,,,,,,,,,,,,,,,,,,,,,,,399.1733,400.3547,l,0,0.506,,0.506,0,400.3555,400.8575,,400.8576,400.8578,-0.111754964,-0.398321601,0,0,0,,0,104,104,207,1,208,FEM,AGR,150,0,lupa,la,4,,,,,
,,,,,,,6e964b5132c2ea0222cac9fd,67d30250bc6dd184d4aaad81,67d7e9a6201df410f7a7df5f,2025-03-17_02h22.15.586,Tarea de clasificación semántica,2024.2.5,MacIntel,57.80346821,,,,,,,,,,,,,,,,,,,,,,,400.859,401.6238,s,1,0.0874,,0.0874,1,401.6245,402.1212,,402.1212,402.1214,-0.111754964,-0.398321601,0,0,0,,0,105,105,200,1,201,FEM,DIS,150,0,huella,el,6,,,,,
,,,,,,,6e964b5132c2ea0222cac9fd,67d30250bc6dd184d4aaad81,67d7e9a6201df410f7a7df5f,2025-03-17_02h22.15.586,Tarea de clasificación semántica,2024.2.5,MacIntel,57.80346821,,,,,,,,,,,,,,,,,,,,,,,402.1231,403.1559,s,0,0.3581,,0.3581,0,403.1567,403.6517,,403.6518,403.6519,-0.111754964,-0.398321601,0,0,0,,0,106,106,477,1,478,FEM,AGR,150,1,perdiz,la,6,,,,,
,,,,,,,6e964b5132c2ea0222cac9fd,67d30250bc6dd184d4aaad81,67d7e9a6201df410f7a7df5f,2025-03-17_02h22.15.586,Tarea de clasificación semántica,2024.2.5,MacIntel,57.80346821,,,,,,,,,,,,,,,,,,,,,,,403.653,404.7262,s,1,0.4058,,0.4058,1,404.7272,405.2767,,405.2768,405.2769,-0.111754964,-0.398321601,0,0,0,,0,107,107,411,1,412,MAS,AGR,150,0,tanque,el,6,,,,,
,,,,,,,6e964b5132c2ea0222cac9fd,67d30250bc6dd184d4aaad81,67d7e9a6201df410f7a7df5f,2025-03-17_02h22.15.586,Tarea de clasificación semántica,2024.2.5,MacIntel,57.80346821,,,,,,,,,,,,,,,,,,,,,,,405.2781,406.2937,s,0,0.3342,,0.3342,0,406.2951,406.7865,,406.7879,406.7895,-0.111754964,-0.398321601,0,0,0,,0,108,108,478,1,479,FEM,DIS,150,1,nutria,el,6,,,,,
,,,,,,,6e964b5132c2ea0222cac9fd,67d30250bc6dd184d4aaad81,67d7e9a6201df410f7a7df5f,2025-03-17_02h22.15.586,Tarea de clasificación semántica,2024.2.5,MacIntel,57.80346821,,,,,,,,,,,,,,,,,,,,,,,406.7906,407.9057,s,1,0.4412,,0.4412,1,407.9065,408.4009,,408.401,408.401,-0.111754964,-0.398321601,0,0,0,,0,109,109,395,1,396,MAS,AGR,150,0,premio,el,6,,,,,
,,,,,,,6e964b5132c2ea0222cac9fd,67d30250bc6dd184d4aaad81,67d7e9a6201df410f7a7df5f,2025-03-17_02h22.15.586,Tarea de clasificación semántica,2024.2.5,MacIntel,57.80346821,,,,,,,,,,,,,,,,,,,,,,,408.4024,409.1708,s,1,0.089,,0.089,1,409.1709,409.6694,,409.6695,409.6697,-0.111754964,-0.398321601,0,0,0,,0,110,110,408,1,409,MAS,DIS,150,0,océano,la,6,,,,,
,,,,,,,6e964b5132c2ea0222cac9fd,67d30250bc6dd184d4aaad81,67d7e9a6201df410f7a7df5f,2025-03-17_02h22.15.586,Tarea de clasificación semántica,2024.2.5,MacIntel,57.80346821,,,,,,,,,,,,,,,,,,,,,,,409.6708,410.8216,s,1,0.4705,,0.4705,1,410.8218,411.3143,,411.3144,411.3145,-0.111754964,-0.398321601,0,0,0,,0,111,111,276,1,277,MAS,DIS,150,0,amigo,la,5,,,,,
,,,,,,,6e964b5132c2ea0222cac9fd,67d30250bc6dd184d4aaad81,67d7e9a6201df410f7a7df5f,2025-03-17_02h22.15.586,Tarea de clasificación semántica,2024.2.5,MacIntel,57.80346821,,,,,,,,,,,,,,,,,,,,,,,411.3157,412.5773,l,0,0.5859,,0.5859,0,412.5785,413.0752,,413.0754,413.0756,-0.111754964,-0.398321601,0,0,0,,0,112,112,185,1,186,FEM,AGR,150,0,hierba,la,6,,,,,
,,,,,,,6e964b5132c2ea0222cac9fd,67d30250bc6dd184d4aaad81,67d7e9a6201df410f7a7df5f,2025-03-17_02h22.15.586,Tarea de clasificación semántica,2024.2.5,MacIntel,57.80346821,,,,,,,,,,,,,,,,,,,,,,,413.077,414.1631,s,1,0.4153,,0.4153,1,414.1642,414.6644,,414.6661,414.6682,-0.111754964,-0.398321601,0,0,0,,0,113,113,248,1,249,MAS,DIS,150,0,tomo,la,4,,,,,
,,,,,,,6e964b5132c2ea0222cac9fd,67d30250bc6dd184d4aaad81,67d7e9a6201df410f7a7df5f,2025-03-17_02h22.15.586,Tarea de clasificación semántica,2024.2.5,MacIntel,57.80346821,,,,,,,,,,,,,,,,,,,,,,,414.6695,415.7291,s,1,0.3873,,0.3873,1,415.7293,416.2221,,416.2222,416.2224,-0.111754964,-0.398321601,0,0,0,,0,114,114,253,1,254,MAS,AGR,150,0,cubo,el,4,,,,,
,,,,,,,6e964b5132c2ea0222cac9fd,67d30250bc6dd184d4aaad81,67d7e9a6201df410f7a7df5f,2025-03-17_02h22.15.586,Tarea de clasificación semántica,2024.2.5,MacIntel,57.80346821,,,,,,,,,,,,,,,,,,,,,,,416.2236,417.011,s,0,0.1137,,0.1137,0,417.0117,417.5153,,417.5154,417.5156,-0.111754964,-0.398321601,0,0,0,,0,115,115,437,1,438,FEM,AGR,150,1,paloma,la,6,,,,,
,,,,,,,6e964b5132c2ea0222cac9fd,67d30250bc6dd184d4aaad81,67d7e9a6201df410f7a7df5f,2025-03-17_02h22.15.586,Tarea de clasificación semántica,2024.2.5,MacIntel,57.80346821,,,,,,,,,,,,,,,,,,,,,,,417.5167,418.7424,s,1,0.5528,,0.5528,1,418.7432,419.243,,419.243,419.2431,-0.111754964,-0.398321601,0,0,0,,0,116,116,161,1,162,FEM,AGR,150,0,pierna,la,6,,,,,
,,,,,,,6e964b5132c2ea0222cac9fd,67d30250bc6dd184d4aaad81,67d7e9a6201df410f7a7df5f,2025-03-17_02h22.15.586,Tarea de clasificación semántica,2024.2.5,MacIntel,57.80346821,,,,,,,,,,,,,,,,,,,,,,,419.2445,420.1252,s,0,0.2047,,0.2047,0,420.1261,420.6254,,420.6256,420.6257,-0.111754964,-0.398321601,0,0,0,,0,117,117,505,1,506,MAS,AGR,150,1,pulpo,el,5,,,,,
,,,,,,,6e964b5132c2ea0222cac9fd,67d30250bc6dd184d4aaad81,67d7e9a6201df410f7a7df5f,2025-03-17_02h22.15.586,Tarea de clasificación semántica,2024.2.5,MacIntel,57.80346821,,,,,,,,,,,,,,,,,,,,,,,420.6268,421.6756,s,1,0.372,,0.372,1,421.6764,422.1741,,422.1743,422.1745,-0.111754964,-0.398321601,0,0,0,,0,118,118,42,1,43,FEM,DIS,150,0,hoja,el,4,,,,,
,,,,,,,6e964b5132c2ea0222cac9fd,67d30250bc6dd184d4aaad81,67d7e9a6201df410f7a7df5f,2025-03-17_02h22.15.586,Tarea de clasificación semántica,2024.2.5,MacIntel,57.80346821,,,,,,,,,,,,,,,,,,,,,,,422.1755,423.0732,s,1,0.2284,,0.2284,1,423.0734,423.5735,,423.575,423.5769,-0.111754964,-0.398321601,0,0,0,,0,119,119,370,1,371,MAS,DIS,150,0,camión,la,6,,,,,
,,,,,,,6e964b5132c2ea0222cac9fd,67d30250bc6dd184d4aaad81,67d7e9a6201df410f7a7df5f,2025-03-17_02h22.15.586,Tarea de clasificación semántica,2024.2.5,MacIntel,57.80346821,,,,,,,,,,,,,,,,,,,,,,,423.5787,424.7119,s,1,0.4628,,0.4628,1,424.712,425.214,,425.2141,425.2142,-0.111754964,-0.398321601,0,0,0,,0,120,120,138,1,139,FEM,DIS,150,0,verdad,el,6,,,,,
,,,,,,,6e964b5132c2ea0222cac9fd,67d30250bc6dd184d4aaad81,67d7e9a6201df410f7a7df5f,2025-03-17_02h22.15.586,Tarea de clasificación semántica,2024.2.5,MacIntel,57.80346821,,,,,,,,,,,,,,,,,,,,,,,425.2154,426.3717,s,1,0.482,,0.482,1,426.3719,426.8707,,426.8707,426.8709,-0.111754964,-0.398321601,0,0,0,,0,121,121,95,1,96,FEM,AGR,150,0,reina,la,5,,,,,
,,,,,,,6e964b5132c2ea0222cac9fd,67d30250bc6dd184d4aaad81,67d7e9a6201df410f7a7df5f,2025-03-17_02h22.15.586,Tarea de clasificación semántica,2024.2.5,MacIntel,57.80346821,,,,,,,,,,,,,,,,,,,,,,,426.8727,427.7871,s,1,0.2361,,0.2361,1,427.7872,428.3194,,428.3195,428.3196,-0.111754964,-0.398321601,0,0,0,,0,122,122,41,1,42,FEM,AGR,150,0,risa,la,4,,,,,
,,,,,,,6e964b5132c2ea0222cac9fd,67d30250bc6dd184d4aaad81,67d7e9a6201df410f7a7df5f,2025-03-17_02h22.15.586,Tarea de clasificación semántica,2024.2.5,MacIntel,57.80346821,,,,,,,,,,,,,,,,,,,,,,,428.321,429.3225,s,1,0.3103,,0.3103,1,429.3227,429.8338,,429.8341,429.8342,-0.111754964,-0.398321601,0,0,0,,0,123,123,386,1,387,MAS,DIS,150,0,empleo,la,6,,,,,
,,,,,,,6e964b5132c2ea0222cac9fd,67d30250bc6dd184d4aaad81,67d7e9a6201df410f7a7df5f,2025-03-17_02h22.15.586,Tarea de clasificación semántica,2024.2.5,MacIntel,57.80346821,,,,,,,,,,,,,,,,,,,,,,,429.8357,430.6042,s,1,0.099,,0.099,1,430.6043,431.1019,,431.1021,431.1022,-0.111754964,-0.398321601,0,0,0,,0,124,124,289,1,290,MAS,AGR,150,0,sueño,el,5,,,,,
,,,,,,,6e964b5132c2ea0222cac9fd,67d30250bc6dd184d4aaad81,67d7e9a6201df410f7a7df5f,2025-03-17_02h22.15.586,Tarea de clasificación semántica,2024.2.5,MacIntel,57.80346821,,,,,,,,,,,,,,,,,,,,,,,431.1041,432.2318,l,1,0.4454,,0.4454,1,432.232,432.7291,,432.7308,432.7323,-0.111754964,-0.398321601,0,0,0,,0,125,125,525,1,526,MAS,AGR,150,1,pavo,el,4,,,,,
,,,,,,,6e964b5132c2ea0222cac9fd,67d30250bc6dd184d4aaad81,67d7e9a6201df410f7a7df5f,2025-03-17_02h22.15.586,Tarea de clasificación semántica,2024.2.5,MacIntel,57.80346821,,,,,,,,,,,,,,,,,,,,,,,432.7339,433.8,s,1,0.3796,,0.3796,1,433.8001,434.2927,,434.2928,434.293,-0.111754964,-0.398321601,0,0,0,,0,126,126,123,1,124,FEM,AGR,150,0,rueda,la,5,,,,,
,,,,,,,6e964b5132c2ea0222cac9fd,67d30250bc6dd184d4aaad81,67d7e9a6201df410f7a7df5f,2025-03-17_02h22.15.586,Tarea de clasificación semántica,2024.2.5,MacIntel,57.80346821,,,,,,,,,,,,,,,,,,,,,,,434.2942,435.3843,s,1,0.4164,,0.4164,1,435.3844,435.8642,,435.8643,435.8643,-0.111754964,-0.398321601,0,0,0,,0,127,127,270,1,271,MAS,DIS,150,0,faro,la,4,,,,,
,,,,,,,6e964b5132c2ea0222cac9fd,67d30250bc6dd184d4aaad81,67d7e9a6201df410f7a7df5f,2025-03-17_02h22.15.586,Tarea de clasificación semántica,2024.2.5,MacIntel,57.80346821,,,,,,,,,,,,,,,,,,,,,,,435.8654,436.8479,s,1,0.2964,,0.2964,1,436.848,437.3562,,437.3563,437.3564,-0.111754964,-0.398321601,0,0,0,,0,128,128,60,1,61,FEM,DIS,150,0,leña,el,4,,,,,
,,,,,,,6e964b5132c2ea0222cac9fd,67d30250bc6dd184d4aaad81,67d7e9a6201df410f7a7df5f,2025-03-17_02h22.15.586,Tarea de clasificación semántica,2024.2.5,MacIntel,57.80346821,,,,,,,,,,,,,,,,,,,,,,,437.3574,438.3965,s,1,0.3618,,0.3618,1,438.3965,438.8966,,438.8967,438.8969,-0.111754964,-0.398321601,0,0,0,,0,129,129,321,1,322,MAS,AGR,150,0,viejo,el,5,,,,,
,,,,,,,6e964b5132c2ea0222cac9fd,67d30250bc6dd184d4aaad81,67d7e9a6201df410f7a7df5f,2025-03-17_02h22.15.586,Tarea de clasificación semántica,2024.2.5,MacIntel,57.80346821,,,,,,,,,,,,,,,,,,,,,,,438.8998,439.7131,s,1,0.1369,,0.1369,1,439.7131,440.2029,,440.2047,440.2061,-0.111754964,-0.398321601,0,0,0,,0,130,130,390,1,391,MAS,DIS,150,0,correo,la,6,,,,,
,,,,,,,6e964b5132c2ea0222cac9fd,67d30250bc6dd184d4aaad81,67d7e9a6201df410f7a7df5f,2025-03-17_02h22.15.586,Tarea de clasificación semántica,2024.2.5,MacIntel,57.80346821,,,,,,,,,,,,,,,,,,,,,,,440.2071,441.4832,s,1,0.6061,,0.6061,1,441.4833,441.9808,,441.9809,441.981,-0.111754964,-0.398321601,0,0,0,,0,131,131,403,1,404,MAS,AGR,150,0,rastro,el,6,,,,,
,,,,,,,6e964b5132c2ea0222cac9fd,67d30250bc6dd184d4aaad81,67d7e9a6201df410f7a7df5f,2025-03-17_02h22.15.586,Tarea de clasificación semántica,2024.2.5,MacIntel,57.80346821,,,,,,,,,,,,,,,,,,,,,,,441.9829,443.1057,s,1,0.4475,,0.4475,1,443.1058,443.6027,,443.6029,443.6031,-0.111754964,-0.398321601,0,0,0,,0,132,132,338,1,339,MAS,DIS,150,0,piano,la,5,,,,,
,,,,,,,6e964b5132c2ea0222cac9fd,67d30250bc6dd184d4aaad81,67d7e9a6201df410f7a7df5f,2025-03-17_02h22.15.586,Tarea de clasificación semántica,2024.2.5,MacIntel,57.80346821,,,,,,,,,,,,,,,,,,,,,,,443.6042,444.9048,s,1,0.6258,,0.6258,1,444.9051,445.4073,,445.4074,445.4075,-0.111754964,-0.398321601,0,0,0,,0,133,133,100,1,101,FEM,DIS,150,0,magia,el,5,,,,,
,,,,,,,6e964b5132c2ea0222cac9fd,67d30250bc6dd184d4aaad81,67d7e9a6201df410f7a7df5f,2025-03-17_02h22.15.586,Tarea de clasificación semántica,2024.2.5,MacIntel,57.80346821,,,,,,,,,,,,,,,,,,,,,,,445.41,446.458,s,1,0.3813,,0.3813,1,446.4583,446.9521,,446.9522,446.9523,-0.111754964,-0.398321601,0,0,0,,0,134,134,112,1,113,FEM,DIS,150,0,ducha,el,5,,,,,
,,,,,,,6e964b5132c2ea0222cac9fd,67d30250bc6dd184d4aaad81,67d7e9a6201df410f7a7df5f,2025-03-17_02h22.15.586,Tarea de clasificación semántica,2024.2.5,MacIntel,57.80346821,,,,,,,,,,,,,,,,,,,,,,,446.9531,448.5496,s,1,0.9243,,0.9243,1,448.5498,449.0392,,449.0392,449.0394,-0.111754964,-0.398321601,0,0,0,,0,135,135,326,1,327,MAS,DIS,150,0,carro,la,5,,,,,
,,,,,,,6e964b5132c2ea0222cac9fd,67d30250bc6dd184d4aaad81,67d7e9a6201df410f7a7df5f,2025-03-17_02h22.15.586,Tarea de clasificación semántica,2024.2.5,MacIntel,57.80346821,,,,,,,,,,,,,,,,,,,,,,,449.0409,450.5222,s,1,0.8011,,0.8011,1,450.5223,451.0211,,451.0229,451.0247,-0.111754964,-0.398321601,0,0,0,,0,136,136,317,1,318,MAS,AGR,150,0,hielo,el,5,,,,,
,,,,,,,6e964b5132c2ea0222cac9fd,67d30250bc6dd184d4aaad81,67d7e9a6201df410f7a7df5f,2025-03-17_02h22.15.586,Tarea de clasificación semántica,2024.2.5,MacIntel,57.80346821,,,,,,,,,,,,,,,,,,,,,,,451.0258,452.2203,s,1,0.5137,,0.5137,1,452.2204,452.7233,,452.7234,452.7235,-0.111754964,-0.398321601,0,0,0,,0,137,137,236,1,237,MAS,DIS,150,0,muro,la,4,,,,,
,,,,,,,6e964b5132c2ea0222cac9fd,67d30250bc6dd184d4aaad81,67d7e9a6201df410f7a7df5f,2025-03-17_02h22.15.586,Tarea de clasificación semántica,2024.2.5,MacIntel,57.80346821,,,,,,,,,,,,,,,,,,,,,,,452.7249,453.7595,s,1,0.3643,,0.3643,1,453.7596,454.2532,,454.2533,454.2534,-0.111754964,-0.398321601,0,0,0,,0,138,138,84,1,85,FEM,DIS,150,0,tarde,el,5,,,,,
,,,,,,,6e964b5132c2ea0222cac9fd,67d30250bc6dd184d4aaad81,67d7e9a6201df410f7a7df5f,2025-03-17_02h22.15.586,Tarea de clasificación semántica,2024.2.5,MacIntel,57.80346821,,,,,,,,,,,,,,,,,,,,,,,454.2549,455.2846,s,1,0.353,,0.353,1,455.2846,455.7856,,455.7856,455.7858,-0.111754964,-0.398321601,0,0,0,,0,139,139,384,1,385,MAS,DIS,150,0,parque,la,6,,,,,
,,,,,,,6e964b5132c2ea0222cac9fd,67d30250bc6dd184d4aaad81,67d7e9a6201df410f7a7df5f,2025-03-17_02h22.15.586,Tarea de clasificación semántica,2024.2.5,MacIntel,57.80346821,,,,,,,,,,,,,,,,,,,,,,,455.7875,456.6174,s,1,0.1482,,0.1482,1,456.6174,457.1138,,457.1139,457.1141,-0.111754964,-0.398321601,0,0,0,,0,140,140,258,1,259,MAS,DIS,150,0,mito,la,4,,,,,
,,,,,,,6e964b5132c2ea0222cac9fd,67d30250bc6dd184d4aaad81,67d7e9a6201df410f7a7df5f,2025-03-17_02h22.15.586,Tarea de clasificación semántica,2024.2.5,MacIntel,57.80346821,,,,,,,,,,,,,,,,,,,,,,,457.1154,458.0483,s,1,0.2641,0.0004,0.2641,1,458.0486,458.5493,,458.5504,458.5517,-0.111754964,-0.398321601,0,0,0,,0,141,141,146,1,147,FEM,DIS,150,0,manera,el,6,,,,,
,,,,,,,6e964b5132c2ea0222cac9fd,67d30250bc6dd184d4aaad81,67d7e9a6201df410f7a7df5f,2025-03-17_02h22.15.586,Tarea de clasificación semántica,2024.2.5,MacIntel,57.80346821,,,,,,,,,,,,,,,,,,,,,,,458.5526,459.7046,s,1,0.4655,,0.4655,1,459.7047,460.1993,,460.1993,460.1995,-0.111754964,-0.398321601,0,0,0,,0,142,142,7,1,8,FEM,AGR,150,0,cara,la,4,,,,,
,,,,,,,6e964b5132c2ea0222cac9fd,67d30250bc6dd184d4aaad81,67d7e9a6201df410f7a7df5f,2025-03-17_02h22.15.586,Tarea de clasificación semántica,2024.2.5,MacIntel,57.80346821,,,,,,,,,,,,,,,,,,,,,,,460.201,461.1689,s,1,0.2918,,0.2918,1,461.169,461.665,,461.6651,461.6652,-0.111754964,-0.398321601,0,0,0,,0,143,143,178,1,179,FEM,DIS,150,0,muñeca,el,6,,,,,
,,,,,,,6e964b5132c2ea0222cac9fd,67d30250bc6dd184d4aaad81,67d7e9a6201df410f7a7df5f,2025-03-17_02h22.15.586,Tarea de clasificación semántica,2024.2.5,MacIntel,57.80346821,,,,,,,,,,,,,,,,,,,,,,,461.6668,462.7302,s,1,0.3947,,0.3947,1,462.7303,463.2386,,463.2387,463.2389,-0.111754964,-0.398321601,0,0,0,,0,144,144,115,1,116,FEM,AGR,150,0,letra,la,5,,,,,
,,,,,,,6e964b5132c2ea0222cac9fd,67d30250bc6dd184d4aaad81,67d7e9a6201df410f7a7df5f,2025-03-17_02h22.15.586,Tarea de clasificación semántica,2024.2.5,MacIntel,57.80346821,,,,,,,,,,,,,,,,,,,,,,,463.2401,464.1825,s,1,0.2668,,0.2668,1,464.1825,464.6823,,464.6823,464.6825,-0.111754964,-0.398321601,0,0,0,,0,145,145,320,1,321,MAS,DIS,150,0,dueño,la,5,,,,,
,,,,,,,6e964b5132c2ea0222cac9fd,67d30250bc6dd184d4aaad81,67d7e9a6201df410f7a7df5f,2025-03-17_02h22.15.586,Tarea de clasificación semántica,2024.2.5,MacIntel,57.80346821,,,,,,,,,,,,,,,,,,,,,,,464.6837,465.6605,s,1,0.2948,,0.2948,1,465.6605,466.169,,466.169,466.1693,-0.111754964,-0.398321601,0,0,0,,0,146,146,380,1,381,MAS,DIS,150,0,efecto,la,6,,,,,
,,,,,,,6e964b5132c2ea0222cac9fd,67d30250bc6dd184d4aaad81,67d7e9a6201df410f7a7df5f,2025-03-17_02h22.15.586,Tarea de clasificación semántica,2024.2.5,MacIntel,57.80346821,,,,,,,,,,,,,,,,,,,,,,,466.1703,466.963,s,0,0.1115,,0.1115,0,466.9638,467.4618,,467.4629,467.4643,-0.111754964,-0.398321601,0,0,0,,0,147,147,549,1,550,MAS,AGR,150,1,chacal,el,6,,,,,
,,,,,,,6e964b5132c2ea0222cac9fd,67d30250bc6dd184d4aaad81,67d7e9a6201df410f7a7df5f,2025-03-17_02h22.15.586,Tarea de clasificación semántica,2024.2.5,MacIntel,57.80346821,,,,,,,,,,,,,,,,,,,,,,,467.4653,468.3101,s,1,0.1841,,0.1841,1,468.3108,468.7977,,468.7978,468.798,-0.111754964,-0.398321601,0,0,0,,0,148,148,283,1,284,MAS,AGR,150,0,poder,el,5,,,,,
,,,,,,,6e964b5132c2ea0222cac9fd,67d30250bc6dd184d4aaad81,67d7e9a6201df410f7a7df5f,2025-03-17_02h22.15.586,Tarea de clasificación semántica,2024.2.5,MacIntel,57.80346821,,,,,,,,,,,,,,,,,,,,,,,468.7991,469.6097,s,1,0.1361,,0.1361,1,469.6098,470.109,,470.1091,470.1093,-0.111754964,-0.398321601,0,0,0,,0,149,149,160,1,161,FEM,DIS,150,0,pareja,el,6,,,,,
,,,,,,,6e964b5132c2ea0222cac9fd,67d30250bc6dd184d4aaad81,67d7e9a6201df410f7a7df5f,2025-03-17_02h22.15.586,Tarea de clasificación semántica,2024.2.5,MacIntel,57.80346821,,,,,,,,,,,,,,,,,,,,,,,470.1104,470.9258,s,1,0.1329,,0.1329,1,470.9259,471.4242,,471.4246,471.4247,-0.111754964,-0.398321601,0,0,0,,0,150,150,241,1,242,MAS,AGR,150,0,pico,el,4,,,,,
,,,,,,,6e964b5132c2ea0222cac9fd,67d30250bc6dd184d4aaad81,67d7e9a6201df410f7a7df5f,2025-03-17_02h22.15.586,Tarea de clasificación semántica,2024.2.5,MacIntel,57.80346821,,,,,,,,,,,,,,,,,,,,,,,471.426,472.3081,s,1,0.2054,,0.2054,1,472.3083,472.8098,,472.8099,472.81,-0.111754964,-0.398321601,0,0,0,,0,151,151,206,1,207,FEM,DIS,150,0,lógica,el,6,,,,,
,,,,,,,6e964b5132c2ea0222cac9fd,67d30250bc6dd184d4aaad81,67d7e9a6201df410f7a7df5f,2025-03-17_02h22.15.586,Tarea de clasificación semántica,2024.2.5,MacIntel,57.80346821,,,,,,,,,,,,,,,,,,,,,,,472.8111,473.623,s,0,0.1265,,0.1265,0,473.6238,474.1231,,474.1268,474.1279,-0.111754964,-0.398321601,0,0,0,,0,152,152,432,1,433,FEM,DIS,150,1,oveja,el,5,,,,,
,,,,,,,6e964b5132c2ea0222cac9fd,67d30250bc6dd184d4aaad81,67d7e9a6201df410f7a7df5f,2025-03-17_02h22.15.586,Tarea de clasificación semántica,2024.2.5,MacIntel,57.80346821,,,,,,,,,,,,,,,,,,,,,,,474.1297,474.9885,l,1,0.1892,,0.1892,1,474.9893,475.4899,,475.49,475.4902,-0.111754964,-0.398321601,0,0,0,,0,153,153,451,1,452,FEM,AGR,150,1,sepia,la,5,,,,,
,,,,,,,6e964b5132c2ea0222cac9fd,67d30250bc6dd184d4aaad81,67d7e9a6201df410f7a7df5f,2025-03-17_02h22.15.586,Tarea de clasificación semántica,2024.2.5,MacIntel,57.80346821,,,,,,,,,,,,,,,,,,,,,,,475.4912,476.5378,s,1,0.3726,,0.3726,1,476.5379,477.0381,,477.0382,477.0383,-0.111754964,-0.398321601,0,0,0,,0,154,154,66,1,67,FEM,DIS,150,0,bota,el,4,,,,,
,,,,,,,6e964b5132c2ea0222cac9fd,67d30250bc6dd184d4aaad81,67d7e9a6201df410f7a7df5f,2025-03-17_02h22.15.586,Tarea de clasificación semántica,2024.2.5,MacIntel,57.80346821,,,,,,,,,,,,,,,,,,,,,,,477.0402,477.8708,s,0,0.1464,,0.1464,0,477.8719,478.3726,,478.3726,478.3728,-0.111754964,-0.398321601,0,0,0,,0,155,155,547,1,548,MAS,AGR,150,1,narval,el,6,,,,,
,,,,,,,6e964b5132c2ea0222cac9fd,67d30250bc6dd184d4aaad81,67d7e9a6201df410f7a7df5f,2025-03-17_02h22.15.586,Tarea de clasificación semántica,2024.2.5,MacIntel,57.80346821,,,,,,,,,,,,,,,,,,,,,,,478.3739,479.0865,s,1,0.0325,,0.0325,1,479.0874,479.5863,,479.5864,479.5865,-0.111754964,-0.398321601,0,0,0,,0,156,156,114,1,115,FEM,DIS,150,0,frase,el,5,,,,,
,,,,,,,6e964b5132c2ea0222cac9fd,67d30250bc6dd184d4aaad81,67d7e9a6201df410f7a7df5f,2025-03-17_02h22.15.586,Tarea de clasificación semántica,2024.2.5,MacIntel,57.80346821,,,,,,,,,,,,,,,,,,,,,,,479.5879,480.3365,l,1,0.0743,,0.0743,1,480.3366,480.8347,,480.8348,480.8349,-0.111754964,-0.398321601,0,0,0,,0,157,157,426,1,427,FEM,DIS,150,1,cebra,el,5,,,,,
,,,,,,,6e964b5132c2ea0222cac9fd,67d30250bc6dd184d4aaad81,67d7e9a6201df410f7a7df5f,2025-03-17_02h22.15.586,Tarea de clasificación semántica,2024.2.5,MacIntel,57.80346821,,,,,,,,,,,,,,,,,,,,,,,480.8362,482.239,l,1,0.7289,,0.7289,1,482.239,482.7339,,482.735,482.7363,-0.111754964,-0.398321601,0,0,0,,0,158,158,422,1,423,FEM,DIS,150,1,mula,el,4,,,,,
,,,,,,,6e964b5132c2ea0222cac9fd,67d30250bc6dd184d4aaad81,67d7e9a6201df410f7a7df5f,2025-03-17_02h22.15.586,Tarea de clasificación semántica,2024.2.5,MacIntel,57.80346821,,,,,,,,,,,,,,,,,,,,,,,482.7373,483.5051,s,1,0.0897,,0.0897,1,483.5052,484.0023,,484.0023,484.0025,-0.111754964,-0.398321601,0,0,0,,0,159,159,175,1,176,FEM,AGR,150,0,granja,la,6,,,,,
,,,,,,,6e964b5132c2ea0222cac9fd,67d30250bc6dd184d4aaad81,67d7e9a6201df410f7a7df5f,2025-03-17_02h22.15.586,Tarea de clasificación semántica,2024.2.5,MacIntel,57.80346821,,,,,,,,,,,,,,,,,,,,,,,484.0035,485.0482,s,1,0.3782,,0.3782,1,485.0483,485.5497,,485.5498,485.5499,-0.111754964,-0.398321601,0,0,0,,0,160,160,363,1,364,MAS,AGR,150,0,precio,el,6,,,,,
,,,,,,,6e964b5132c2ea0222cac9fd,67d30250bc6dd184d4aaad81,67d7e9a6201df410f7a7df5f,2025-03-17_02h22.15.586,Tarea de clasificación semántica,2024.2.5,MacIntel,57.80346821,,,,,,,,,,,,,,,,,,,,,,,485.5515,486.3489,s,1,0.1379,,0.1379,1,486.349,486.8508,,486.8508,486.8509,-0.111754964,-0.398321601,0,0,0,,0,161,161,59,1,60,FEM,AGR,150,0,cuna,la,4,,,,,
,,,,,,,6e964b5132c2ea0222cac9fd,67d30250bc6dd184d4aaad81,67d7e9a6201df410f7a7df5f,2025-03-17_02h22.15.586,Tarea de clasificación semántica,2024.2.5,MacIntel,57.80346821,,,,,,,,,,,,,,,,,,,,,,,486.8519,487.681,l,0,0.1482,,0.1482,0,487.6821,488.1811,,488.1812,488.1813,-0.111754964,-0.398321601,0,0,0,,0,162,162,376,1,377,MAS,DIS,150,0,riesgo,la,6,,,,,
,,,,,,,6e964b5132c2ea0222cac9fd,67d30250bc6dd184d4aaad81,67d7e9a6201df410f7a7df5f,2025-03-17_02h22.15.586,Tarea de clasificación semántica,2024.2.5,MacIntel,57.80346821,,,,,,,,,,,,,,,,,,,,,,,488.1833,489.1958,s,1,0.3345,,0.3345,1,489.1963,489.6809,,489.6809,489.6811,-0.111754964,-0.398321601,0,0,0,,0,163,163,77,1,78,FEM,AGR,150,0,amiga,la,5,,,,,
,,,,,,,6e964b5132c2ea0222cac9fd,67d30250bc6dd184d4aaad81,67d7e9a6201df410f7a7df5f,2025-03-17_02h22.15.586,Tarea de clasificación semántica,2024.2.5,MacIntel,57.80346821,,,,,,,,,,,,,,,,,,,,,,,489.6821,490.8008,s,1,0.4585,,0.4585,1,490.8008,491.2951,,491.296,491.297,-0.111754964,-0.398321601,0,0,0,,0,164,164,394,1,395,MAS,DIS,150,0,ladrón,la,6,,,,,
,,,,,,,6e964b5132c2ea0222cac9fd,67d30250bc6dd184d4aaad81,67d7e9a6201df410f7a7df5f,2025-03-17_02h22.15.586,Tarea de clasificación semántica,2024.2.5,MacIntel,57.80346821,,,,,,,,,,,,,,,,,,,,,,,491.2979,492.3915,s,1,0.3767,,0.3767,1,492.3916,492.8836,,492.8836,492.8839,-0.111754964,-0.398321601,0,0,0,,0,165,165,39,1,40,FEM,AGR,150,0,gira,la,4,,,,,
,,,,,,,6e964b5132c2ea0222cac9fd,67d30250bc6dd184d4aaad81,67d7e9a6201df410f7a7df5f,2025-03-17_02h22.15.586,Tarea de clasificación semántica,2024.2.5,MacIntel,57.80346821,,,,,,,,,,,,,,,,,,,,,,,492.8855,493.999,s,1,0.4162,,0.4162,1,493.999,494.494,,494.4942,494.4943,-0.111754964,-0.398321601,0,0,0,,0,166,166,97,1,98,FEM,AGR,150,0,playa,la,5,,,,,
,,,,,,,6e964b5132c2ea0222cac9fd,67d30250bc6dd184d4aaad81,67d7e9a6201df410f7a7df5f,2025-03-17_02h22.15.586,Tarea de clasificación semántica,2024.2.5,MacIntel,57.80346821,,,,,,,,,,,,,,,,,,,,,,,494.4954,495.4072,s,0,0.2464,,0.2464,0,495.4079,495.8967,,495.8968,495.8969,-0.111754964,-0.398321601,0,0,0,,0,167,167,495,1,496,MAS,AGR,150,1,loro,el,4,,,,,
,,,,,,,6e964b5132c2ea0222cac9fd,67d30250bc6dd184d4aaad81,67d7e9a6201df410f7a7df5f,2025-03-17_02h22.15.586,Tarea de clasificación semántica,2024.2.5,MacIntel,57.80346821,,,,,,,,,,,,,,,,,,,,,,,495.8977,496.7739,s,0,0.1881,,0.1881,0,496.774,497.2747,,497.2748,497.275,-0.111754964,-0.398321601,0,0,0,,0,168,168,474,1,475,FEM,DIS,150,1,iguana,el,6,,,,,
,,,,,,,6e964b5132c2ea0222cac9fd,67d30250bc6dd184d4aaad81,67d7e9a6201df410f7a7df5f,2025-03-17_02h22.15.586,Tarea de clasificación semántica,2024.2.5,MacIntel,57.80346821,,,,,,,,,,,,,,,,,,,,,,,497.2767,498.5907,l,1,0.6397,,0.6397,1,498.5916,499.0932,,499.0944,499.0957,-0.111754964,-0.398321601,0,0,0,,0,169,169,535,1,536,MAS,AGR,150,1,piojo,el,5,,,,,
,,,,,,,6e964b5132c2ea0222cac9fd,67d30250bc6dd184d4aaad81,67d7e9a6201df410f7a7df5f,2025-03-17_02h22.15.586,Tarea de clasificación semántica,2024.2.5,MacIntel,57.80346821,,,,,,,,,,,,,,,,,,,,,,,499.097,500.1989,s,1,0.3605,,0.3605,1,500.199,500.6921,,500.6921,500.6924,-0.111754964,-0.398321601,0,0,0,,0,170,170,351,1,352,MAS,AGR,150,0,número,el,6,,,,,
,,,,,,,6e964b5132c2ea0222cac9fd,67d30250bc6dd184d4aaad81,67d7e9a6201df410f7a7df5f,2025-03-17_02h22.15.586,Tarea de clasificación semántica,2024.2.5,MacIntel,57.80346821,,,,,,,,,,,,,,,,,,,,,,,500.6938,501.4213,s,1,0.0422,,0.0422,1,501.4214,501.9206,,501.9207,501.9208,-0.111754964,-0.398321601,0,0,0,,0,171,171,239,1,240,MAS,AGR,150,0,hoyo,el,4,,,,,
,,,,,,,6e964b5132c2ea0222cac9fd,67d30250bc6dd184d4aaad81,67d7e9a6201df410f7a7df5f,2025-03-17_02h22.15.586,Tarea de clasificación semántica,2024.2.5,MacIntel,57.80346821,,,,,,,,,,,,,,,,,,,,,,,501.9219,502.9881,s,1,0.3881,,0.3881,1,502.9882,503.4873,,503.4873,503.4883,-0.111754964,-0.398321601,0,0,0,,0,172,172,197,1,198,FEM,AGR,150,0,agenda,la,6,,,,,
,,,,,,,6e964b5132c2ea0222cac9fd,67d30250bc6dd184d4aaad81,67d7e9a6201df410f7a7df5f,2025-03-17_02h22.15.586,Tarea de clasificación semántica,2024.2.5,MacIntel,57.80346821,,,,,,,,,,,,,,,,,,,,,,,503.4901,504.5865,s,1,0.4078,,0.4078,1,504.5866,505.0864,,505.0865,505.0867,-0.111754964,-0.398321601,0,0,0,,0,173,173,298,1,299,MAS,DIS,150,0,novio,la,5,,,,,
,,,,,,,6e964b5132c2ea0222cac9fd,67d30250bc6dd184d4aaad81,67d7e9a6201df410f7a7df5f,2025-03-17_02h22.15.586,Tarea de clasificación semántica,2024.2.5,MacIntel,57.80346821,,,,,,,,,,,,,,,,,,,,,,,505.0882,505.7868,s,1,0.0248,,0.0248,1,505.787,506.2855,,506.2856,506.2857,-0.111754964,-0.398321601,0,0,0,,0,174,174,27,1,28,FEM,AGR,150,0,taza,la,4,,,,,
,,,,,,,6e964b5132c2ea0222cac9fd,67d30250bc6dd184d4aaad81,67d7e9a6201df410f7a7df5f,2025-03-17_02h22.15.586,Tarea de clasificación semántica,2024.2.5,MacIntel,57.80346821,,,,,,,,,,,,,,,,,,,,,,,506.287,507.2012,s,1,0.2401,,0.2401,1,507.2013,507.7038,,507.7054,507.7066,-0.111754964,-0.398321601,0,0,0,,0,175,175,355,1,356,MAS,AGR,150,0,cuarto,el,6,,,,,
,,,,,,,6e964b5132c2ea0222cac9fd,67d30250bc6dd184d4aaad81,67d7e9a6201df410f7a7df5f,2025-03-17_02h22.15.586,Tarea de clasificación semántica,2024.2.5,MacIntel,57.80346821,,,,,,,,,,,,,,,,,,,,,,,507.7078,508.551,s,1,0.1656,,0.1656,1,508.5512,509.0503,,509.0504,509.0507,-0.111754964,-0.398321601,0,0,0,,0,176,176,404,1,405,MAS,DIS,150,0,chiste,la,6,,,,,
,,,,,,,6e964b5132c2ea0222cac9fd,67d30250bc6dd184d4aaad81,67d7e9a6201df410f7a7df5f,2025-03-17_02h22.15.586,Tarea de clasificación semántica,2024.2.5,MacIntel,57.80346821,,,,,,,,,,,,,,,,,,,,,,,509.0523,509.8161,s,0,0.084,,0.084,0,509.817,510.3192,,510.3193,510.3193,-0.111754964,-0.398321601,0,0,0,,0,177,177,536,1,537,MAS,DIS,150,1,tigre,la,5,,,,,
,,,,,,,6e964b5132c2ea0222cac9fd,67d30250bc6dd184d4aaad81,67d7e9a6201df410f7a7df5f,2025-03-17_02h22.15.586,Tarea de clasificación semántica,2024.2.5,MacIntel,57.80346821,,,,,,,,,,,,,,,,,,,,,,,510.3205,511.4164,l,1,0.424,,0.424,1,511.4173,511.915,,511.915,511.9152,-0.111754964,-0.398321601,0,0,0,,0,178,178,491,1,492,MAS,AGR,150,1,león,el,4,,,,,
,,,,,,,6e964b5132c2ea0222cac9fd,67d30250bc6dd184d4aaad81,67d7e9a6201df410f7a7df5f,2025-03-17_02h22.15.586,Tarea de clasificación semántica,2024.2.5,MacIntel,57.80346821,,,,,,,,,,,,,,,,,,,,,,,511.9163,512.9974,s,1,0.4047,,0.4047,1,512.9974,513.5023,,513.5024,513.5025,-0.111754964,-0.398321601,0,0,0,,0,179,179,209,1,210,MAS,AGR,150,0,lado,el,4,,,,,
,,,,,,,6e964b5132c2ea0222cac9fd,67d30250bc6dd184d4aaad81,67d7e9a6201df410f7a7df5f,2025-03-17_02h22.15.586,Tarea de clasificación semántica,2024.2.5,MacIntel,57.80346821,,,,,,,,,,,,,,,,,,,,,,,513.5037,514.58,s,1,0.4014,,0.4014,1,514.58,515.0794,,515.0813,515.0823,-0.111754964,-0.398321601,0,0,0,,0,180,180,6,1,7,FEM,DIS,150,0,hija,el,4,,,,,
,,,,,,,6e964b5132c2ea0222cac9fd,67d30250bc6dd184d4aaad81,67d7e9a6201df410f7a7df5f,2025-03-17_02h22.15.586,Tarea de clasificación semántica,2024.2.5,MacIntel,57.80346821,,,,,,,,,,,,,,,,,,,,,,,515.0834,515.8503,s,0,0.0993,,0.0993,0,515.8512,516.346,,516.3461,516.3463,-0.111754964,-0.398321601,0,0,0,,0,181,181,539,1,540,MAS,AGR,150,1,cisne,el,5,,,,,
,,,,,,,6e964b5132c2ea0222cac9fd,67d30250bc6dd184d4aaad81,67d7e9a6201df410f7a7df5f,2025-03-17_02h22.15.586,Tarea de clasificación semántica,2024.2.5,MacIntel,57.80346821,,,,,,,,,,,,,,,,,,,,,,,516.3476,517.3774,s,1,0.3593,,0.3593,1,517.3782,517.8775,,517.8777,517.8778,-0.111754964,-0.398321601,0,0,0,,0,182,182,134,1,135,FEM,DIS,150,0,tabla,el,5,,,,,
,,,,,,,6e964b5132c2ea0222cac9fd,67d30250bc6dd184d4aaad81,67d7e9a6201df410f7a7df5f,2025-03-17_02h22.15.586,Tarea de clasificación semántica,2024.2.5,MacIntel,57.80346821,,,,,,,,,,,,,,,,,,,,,,,517.8801,518.9046,s,1,0.3222,,0.3222,1,518.9047,519.4091,,519.4092,519.4092,-0.111754964,-0.398321601,0,0,0,,0,183,183,194,1,195,FEM,DIS,150,0,novela,el,6,,,,,
,,,,,,,6e964b5132c2ea0222cac9fd,67d30250bc6dd184d4aaad81,67d7e9a6201df410f7a7df5f,2025-03-17_02h22.15.586,Tarea de clasificación semántica,2024.2.5,MacIntel,57.80346821,,,,,,,,,,,,,,,,,,,,,,,519.4105,520.222,s,1,0.1291,,0.1291,1,520.2222,520.7267,,520.7268,520.7269,-0.111754964,-0.398321601,0,0,0,,0,184,184,282,1,283,MAS,DIS,150,0,sitio,la,5,,,,,
,,,,,,,6e964b5132c2ea0222cac9fd,67d30250bc6dd184d4aaad81,67d7e9a6201df410f7a7df5f,2025-03-17_02h22.15.586,Tarea de clasificación semántica,2024.2.5,MacIntel,57.80346821,,,,,,,,,,,,,,,,,,,,,,,520.7281,521.7924,s,0,0.3828,,0.3828,0,521.7932,522.2946,,522.2947,611.725,-0.111754964,-0.398321601,0,0,0,space,0,185,185,418,1,419,FEM,DIS,150,1,rana,el,4,89.4012,,,,
,,,,,,,6e964b5132c2ea0222cac9fd,67d30250bc6dd184d4aaad81,67d7e9a6201df410f7a7df5f,2025-03-17_02h22.15.586,Tarea de clasificación semántica,2024.2.5,MacIntel,57.80346821,,,,,,,,,,,,,,,,,,,,,,,611.7262,613.6972,s,1,1.2942,,1.2942,1,613.6981,614.1969,,614.1982,614.1996,-0.111754964,-0.398321601,0,0,0,,0,186,186,245,1,246,MAS,AGR,150,0,mago,el,4,,,,,
,,,,,,,6e964b5132c2ea0222cac9fd,67d30250bc6dd184d4aaad81,67d7e9a6201df410f7a7df5f,2025-03-17_02h22.15.586,Tarea de clasificación semántica,2024.2.5,MacIntel,57.80346821,,,,,,,,,,,,,,,,,,,,,,,614.2012,615.9383,s,1,1.06,,1.06,1,615.9384,616.4331,,616.4332,616.4332,-0.111754964,-0.398321601,0,0,0,,0,187,187,232,1,233,MAS,DIS,150,0,humo,la,4,,,,,
,,,,,,,6e964b5132c2ea0222cac9fd,67d30250bc6dd184d4aaad81,67d7e9a6201df410f7a7df5f,2025-03-17_02h22.15.586,Tarea de clasificación semántica,2024.2.5,MacIntel,57.80346821,,,,,,,,,,,,,,,,,,,,,,,616.4343,617.521,s,1,0.4083,,0.4083,1,617.521,618.0128,,618.0128,618.013,-0.111754964,-0.398321601,0,0,0,,0,188,188,140,1,141,FEM,DIS,150,0,maldad,el,6,,,,,
,,,,,,,6e964b5132c2ea0222cac9fd,67d30250bc6dd184d4aaad81,67d7e9a6201df410f7a7df5f,2025-03-17_02h22.15.586,Tarea de clasificación semántica,2024.2.5,MacIntel,57.80346821,,,,,,,,,,,,,,,,,,,,,,,618.014,618.7681,s,1,0.0661,,0.0661,1,618.7681,619.2681,,619.2682,619.2683,-0.111754964,-0.398321601,0,0,0,,0,189,189,242,1,243,MAS,DIS,150,0,oído,la,4,,,,,
,,,,,,,6e964b5132c2ea0222cac9fd,67d30250bc6dd184d4aaad81,67d7e9a6201df410f7a7df5f,2025-03-17_02h22.15.586,Tarea de clasificación semántica,2024.2.5,MacIntel,57.80346821,,,,,,,,,,,,,,,,,,,,,,,619.2701,620.0429,l,0,0.1066,,0.1066,0,620.0438,620.5432,,620.5432,620.5434,-0.111754964,-0.398321601,0,0,0,,0,190,190,372,1,373,MAS,DIS,150,0,bosque,la,6,,,,,
,,,,,,,6e964b5132c2ea0222cac9fd,67d30250bc6dd184d4aaad81,67d7e9a6201df410f7a7df5f,2025-03-17_02h22.15.586,Tarea de clasificación semántica,2024.2.5,MacIntel,57.80346821,,,,,,,,,,,,,,,,,,,,,,,620.5448,621.5325,l,0,0.3256,,0.3256,0,621.5327,622.0265,,622.0279,622.0295,-0.111754964,-0.398321601,0,0,0,,0,191,191,139,1,140,FEM,AGR,150,0,cabeza,la,6,,,,,
,,,,,,,6e964b5132c2ea0222cac9fd,67d30250bc6dd184d4aaad81,67d7e9a6201df410f7a7df5f,2025-03-17_02h22.15.586,Tarea de clasificación semántica,2024.2.5,MacIntel,57.80346821,,,,,,,,,,,,,,,,,,,,,,,622.0305,623.0408,s,1,0.3387,,0.3387,1,623.0415,623.5412,,623.5413,623.5415,-0.111754964,-0.398321601,0,0,0,,0,192,192,196,1,197,FEM,DIS,150,0,poesía,el,6,,,,,
,,,,,,,6e964b5132c2ea0222cac9fd,67d30250bc6dd184d4aaad81,67d7e9a6201df410f7a7df5f,2025-03-17_02h22.15.586,Tarea de clasificación semántica,2024.2.5,MacIntel,57.80346821,,,,,,,,,,,,,,,,,,,,,,,623.5433,624.5062,s,1,0.289,,0.289,1,624.5062,625.006,,625.0061,625.0063,-0.111754964,-0.398321601,0,0,0,,0,193,193,135,1,136,FEM,AGR,150,0,grasa,la,5,,,,,
,,,,,,,6e964b5132c2ea0222cac9fd,67d30250bc6dd184d4aaad81,67d7e9a6201df410f7a7df5f,2025-03-17_02h22.15.586,Tarea de clasificación semántica,2024.2.5,MacIntel,57.80346821,,,,,,,,,,,,,,,,,,,,,,,625.0077,626.0718,l,1,0.3782,,0.3782,1,626.0719,626.5729,,626.573,626.5731,-0.111754964,-0.398321601,0,0,0,,0,194,194,479,1,480,FEM,AGR,150,1,jirafa,la,6,,,,,
,,,,,,,6e964b5132c2ea0222cac9fd,67d30250bc6dd184d4aaad81,67d7e9a6201df410f7a7df5f,2025-03-17_02h22.15.586,Tarea de clasificación semántica,2024.2.5,MacIntel,57.80346821,,,,,,,,,,,,,,,,,,,,,,,626.5752,627.5382,s,1,0.292,,0.292,1,627.5383,628.0384,,628.0385,628.0387,-0.111754964,-0.398321601,0,0,0,,0,195,195,144,1,145,FEM,DIS,150,0,ciudad,el,6,,,,,
,,,,,,,6e964b5132c2ea0222cac9fd,67d30250bc6dd184d4aaad81,67d7e9a6201df410f7a7df5f,2025-03-17_02h22.15.586,Tarea de clasificación semántica,2024.2.5,MacIntel,57.80346821,,,,,,,,,,,,,,,,,,,,,,,628.0399,628.9198,s,1,0.199,,0.199,1,628.9199,629.4204,,629.4205,629.4206,-0.111754964,-0.398321601,0,0,0,,0,196,196,81,1,82,FEM,AGR,150,0,señal,la,5,,,,,
,,,,,,,6e964b5132c2ea0222cac9fd,67d30250bc6dd184d4aaad81,67d7e9a6201df410f7a7df5f,2025-03-17_02h22.15.586,Tarea de clasificación semántica,2024.2.5,MacIntel,57.80346821,,,,,,,,,,,,,,,,,,,,,,,629.4224,630.4203,s,1,0.3152,,0.3152,1,630.4203,630.922,,630.9232,630.9246,-0.111754964,-0.398321601,0,0,0,,0,197,197,268,1,269,MAS,DIS,150,0,luto,la,4,,,,,
,,,,,,,6e964b5132c2ea0222cac9fd,67d30250bc6dd184d4aaad81,67d7e9a6201df410f7a7df5f,2025-03-17_02h22.15.586,Tarea de clasificación semántica,2024.2.5,MacIntel,57.80346821,,,,,,,,,,,,,,,,,,,,,,,630.9257,631.9183,s,1,0.3155,,0.3155,1,631.9184,632.3768,,632.3768,632.3769,-0.111754964,-0.398321601,0,0,0,,0,198,198,365,1,366,MAS,AGR,150,0,juicio,el,6,,,,,
,,,,,,,6e964b5132c2ea0222cac9fd,67d30250bc6dd184d4aaad81,67d7e9a6201df410f7a7df5f,2025-03-17_02h22.15.586,Tarea de clasificación semántica,2024.2.5,MacIntel,57.80346821,,,,,,,,,,,,,,,,,,,,,,,632.3779,633.4347,s,0,0.3772,,0.3772,0,633.4365,633.9334,,633.9334,633.9335,-0.111754964,-0.398321601,0,0,0,,0,199,199,523,1,524,MAS,AGR,150,1,mono,el,4,,,,,
,,,,,,,6e964b5132c2ea0222cac9fd,67d30250bc6dd184d4aaad81,67d7e9a6201df410f7a7df5f,2025-03-17_02h22.15.586,Tarea de clasificación semántica,2024.2.5,MacIntel,57.80346821,,,,,,,,,,,,,,,,,,,,,,,633.9346,634.9334,s,1,0.336,,0.336,1,634.9345,635.4327,,635.4328,635.4329,-0.111754964,-0.398321601,0,0,0,,0,200,200,151,1,152,FEM,AGR,150,0,música,la,6,,,,,
,,,,,,,6e964b5132c2ea0222cac9fd,67d30250bc6dd184d4aaad81,67d7e9a6201df410f7a7df5f,2025-03-17_02h22.15.586,Tarea de clasificación semántica,2024.2.5,MacIntel,57.80346821,,,,,,,,,,,,,,,,,,,,,,,635.4345,636.5539,s,1,0.4424,,0.4424,1,636.554,637.0525,,637.0525,637.0527,-0.111754964,-0.398321601,0,0,0,,0,201,201,148,1,149,FEM,DIS,150,0,fiesta,el,6,,,,,
,,,,,,,6e964b5132c2ea0222cac9fd,67d30250bc6dd184d4aaad81,67d7e9a6201df410f7a7df5f,2025-03-17_02h22.15.586,Tarea de clasificación semántica,2024.2.5,MacIntel,57.80346821,,,,,,,,,,,,,,,,,,,,,,,637.0541,638.1159,s,1,0.3854,,0.3854,1,638.1159,638.6162,,638.6176,638.6188,-0.111754964,-0.398321601,0,0,0,,0,202,202,154,1,155,FEM,DIS,150,0,basura,el,6,,,,,
,,,,,,,6e964b5132c2ea0222cac9fd,67d30250bc6dd184d4aaad81,67d7e9a6201df410f7a7df5f,2025-03-17_02h22.15.586,Tarea de clasificación semántica,2024.2.5,MacIntel,57.80346821,,,,,,,,,,,,,,,,,,,,,,,638.6201,639.4129,s,1,0.0912,,0.0912,1,639.4129,639.9128,,639.9129,639.9131,-0.111754964,-0.398321601,0,0,0,,0,203,203,220,1,221,MAS,DIS,150,0,frío,la,4,,,,,
,,,,,,,6e964b5132c2ea0222cac9fd,67d30250bc6dd184d4aaad81,67d7e9a6201df410f7a7df5f,2025-03-17_02h22.15.586,Tarea de clasificación semántica,2024.2.5,MacIntel,57.80346821,,,,,,,,,,,,,,,,,,,,,,,639.9144,640.9625,s,1,0.3656,,0.3656,1,640.9626,641.4617,,641.4618,641.4624,-0.111754964,-0.398321601,0,0,0,,0,204,204,414,1,415,MAS,DIS,150,0,límite,la,6,,,,,
,,,,,,,6e964b5132c2ea0222cac9fd,67d30250bc6dd184d4aaad81,67d7e9a6201df410f7a7df5f,2025-03-17_02h22.15.586,Tarea de clasificación semántica,2024.2.5,MacIntel,57.80346821,,,,,,,,,,,,,,,,,,,,,,,641.4647,642.3605,s,1,0.2133,,0.2133,1,642.3606,642.8619,,642.8619,642.8623,-0.111754964,-0.398321601,0,0,0,,0,205,205,313,1,314,MAS,AGR,150,0,golpe,el,5,,,,,
,,,,,,,6e964b5132c2ea0222cac9fd,67d30250bc6dd184d4aaad81,67d7e9a6201df410f7a7df5f,2025-03-17_02h22.15.586,Tarea de clasificación semántica,2024.2.5,MacIntel,57.80346821,,,,,,,,,,,,,,,,,,,,,,,642.8643,643.7302,s,1,0.1797,,0.1797,1,643.7303,644.2268,,644.2269,644.227,-0.111754964,-0.398321601,0,0,0,,0,206,206,20,1,21,FEM,DIS,150,0,luna,el,4,,,,,
,,,,,,,6e964b5132c2ea0222cac9fd,67d30250bc6dd184d4aaad81,67d7e9a6201df410f7a7df5f,2025-03-17_02h22.15.586,Tarea de clasificación semántica,2024.2.5,MacIntel,57.80346821,,,,,,,,,,,,,,,,,,,,,,,644.2281,645.0428,s,1,0.137,,0.137,1,645.0428,645.5421,,645.5421,645.5422,-0.111754964,-0.398321601,0,0,0,,0,207,207,261,1,262,MAS,AGR,150,0,bate,el,4,,,,,
,,,,,,,6e964b5132c2ea0222cac9fd,67d30250bc6dd184d4aaad81,67d7e9a6201df410f7a7df5f,2025-03-17_02h22.15.586,Tarea de clasificación semántica,2024.2.5,MacIntel,57.80346821,,,,,,,,,,,,,,,,,,,,,,,645.5431,646.626,s,1,0.3995,,0.3995,1,646.6261,647.1255,,647.1272,647.1285,-0.111754964,-0.398321601,0,0,0,,0,208,208,357,1,358,MAS,AGR,150,0,futuro,el,6,,,,,
,,,,,,,6e964b5132c2ea0222cac9fd,67d30250bc6dd184d4aaad81,67d7e9a6201df410f7a7df5f,2025-03-17_02h22.15.586,Tarea de clasificación semántica,2024.2.5,MacIntel,57.80346821,,,,,,,,,,,,,,,,,,,,,,,647.13,648.4265,s,1,0.6146,,0.6146,1,648.4266,648.9249,,648.925,648.9251,-0.111754964,-0.398321601,0,0,0,,0,209,209,234,1,235,MAS,DIS,150,0,saco,la,4,,,,,
,,,,,,,6e964b5132c2ea0222cac9fd,67d30250bc6dd184d4aaad81,67d7e9a6201df410f7a7df5f,2025-03-17_02h22.15.586,Tarea de clasificación semántica,2024.2.5,MacIntel,57.80346821,,,,,,,,,,,,,,,,,,,,,,,648.9266,650.0773,s,1,0.4775,,0.4775,1,650.0773,650.5738,,650.5739,650.5741,-0.111754964,-0.398321601,0,0,0,,0,210,210,12,1,13,FEM,DIS,150,0,nave,el,4,,,,,
,,,,,,,6e964b5132c2ea0222cac9fd,67d30250bc6dd184d4aaad81,67d7e9a6201df410f7a7df5f,2025-03-17_02h22.15.586,Tarea de clasificación semántica,2024.2.5,MacIntel,57.80346821,,,,,,,,,,,,,,,,,,,,,,,650.5754,651.8385,l,1,0.5834,,0.5834,1,651.8385,652.3382,,652.3383,652.3385,-0.111754964,-0.398321601,0,0,0,,0,211,211,450,1,451,FEM,DIS,150,1,burra,el,5,,,,,
,,,,,,,6e964b5132c2ea0222cac9fd,67d30250bc6dd184d4aaad81,67d7e9a6201df410f7a7df5f,2025-03-17_02h22.15.586,Tarea de clasificación semántica,2024.2.5,MacIntel,57.80346821,,,,,,,,,,,,,,,,,,,,,,,652.3396,653.5222,s,0,0.5079,,0.5079,0,653.5229,654.0206,,654.0206,654.0208,-0.111754964,-0.398321601,0,0,0,,0,212,212,512,1,513,MAS,DIS,150,1,narval,la,6,,,,,
,,,,,,,6e964b5132c2ea0222cac9fd,67d30250bc6dd184d4aaad81,67d7e9a6201df410f7a7df5f,2025-03-17_02h22.15.586,Tarea de clasificación semántica,2024.2.5,MacIntel,57.80346821,,,,,,,,,,,,,,,,,,,,,,,654.0223,654.9866,s,1,0.2871,,0.2871,1,654.9874,655.4862,,655.4863,655.4865,-0.111754964,-0.398321601,0,0,0,,0,213,213,335,1,336,MAS,AGR,150,0,reino,el,5,,,,,
,,,,,,,6e964b5132c2ea0222cac9fd,67d30250bc6dd184d4aaad81,67d7e9a6201df410f7a7df5f,2025-03-17_02h22.15.586,Tarea de clasificación semántica,2024.2.5,MacIntel,57.80346821,,,,,,,,,,,,,,,,,,,,,,,655.4879,656.3192,s,1,0.1666,,0.1666,1,656.3194,656.8189,,656.8201,656.8215,-0.111754964,-0.398321601,0,0,0,,0,214,214,266,1,267,MAS,DIS,150,0,vago,la,4,,,,,
,,,,,,,6e964b5132c2ea0222cac9fd,67d30250bc6dd184d4aaad81,67d7e9a6201df410f7a7df5f,2025-03-17_02h22.15.586,Tarea de clasificación semántica,2024.2.5,MacIntel,57.80346821,,,,,,,,,,,,,,,,,,,,,,,656.8224,657.9753,s,1,0.4743,,0.4743,1,657.9754,658.4683,,658.4684,658.4685,-0.111754964,-0.398321601,0,0,0,,0,215,215,203,1,204,FEM,AGR,150,0,toalla,la,6,,,,,
,,,,,,,6e964b5132c2ea0222cac9fd,67d30250bc6dd184d4aaad81,67d7e9a6201df410f7a7df5f,2025-03-17_02h22.15.586,Tarea de clasificación semántica,2024.2.5,MacIntel,57.80346821,,,,,,,,,,,,,,,,,,,,,,,658.4698,659.5248,s,1,0.3815,,0.3815,1,659.5248,660.0179,,660.0181,660.0182,-0.111754964,-0.398321601,0,0,0,,0,216,216,347,1,348,MAS,AGR,150,0,nombre,el,6,,,,,
,,,,,,,6e964b5132c2ea0222cac9fd,67d30250bc6dd184d4aaad81,67d7e9a6201df410f7a7df5f,2025-03-17_02h22.15.586,Tarea de clasificación semántica,2024.2.5,MacIntel,57.80346821,,,,,,,,,,,,,,,,,,,,,,,660.0199,661.1158,s,0,0.4093,,0.4093,0,661.1168,661.6147,,661.6148,661.6148,-0.111754964,-0.398321601,0,0,0,,0,217,217,455,1,456,FEM,AGR,150,1,rata,la,4,,,,,
,,,,,,,6e964b5132c2ea0222cac9fd,67d30250bc6dd184d4aaad81,67d7e9a6201df410f7a7df5f,2025-03-17_02h22.15.586,Tarea de clasificación semántica,2024.2.5,MacIntel,57.80346821,,,,,,,,,,,,,,,,,,,,,,,661.6162,662.8474,s,1,0.5641,,0.5641,1,662.8482,663.3501,,663.3502,663.3504,-0.111754964,-0.398321601,0,0,0,,0,218,218,259,1,260,MAS,AGR,150,0,puño,el,4,,,,,
,,,,,,,6e964b5132c2ea0222cac9fd,67d30250bc6dd184d4aaad81,67d7e9a6201df410f7a7df5f,2025-03-17_02h22.15.586,Tarea de clasificación semántica,2024.2.5,MacIntel,57.80346821,,,,,,,,,,,,,,,,,,,,,,,663.3514,664.4959,s,1,0.4712,,0.4712,1,664.496,664.997,,664.9988,665.0002,-0.111754964,-0.398321601,0,0,0,,0,219,219,340,1,341,MAS,DIS,150,0,cable,la,5,,,,,
,,,,,,,6e964b5132c2ea0222cac9fd,67d30250bc6dd184d4aaad81,67d7e9a6201df410f7a7df5f,2025-03-17_02h22.15.586,Tarea de clasificación semántica,2024.2.5,MacIntel,57.80346821,,,,,,,,,,,,,,,,,,,,,,,665.0011,666.0629,s,1,0.3781,,0.3781,1,666.0629,666.5627,,666.5627,666.563,-0.111754964,-0.398321601,0,0,0,,0,220,220,141,1,142,FEM,AGR,150,0,suerte,la,6,,,,,
,,,,,,,6e964b5132c2ea0222cac9fd,67d30250bc6dd184d4aaad81,67d7e9a6201df410f7a7df5f,2025-03-17_02h22.15.586,Tarea de clasificación semántica,2024.2.5,MacIntel,57.80346821,,,,,,,,,,,,,,,,,,,,,,,666.5659,667.5789,s,1,0.3399,,0.3399,1,667.5791,668.08,,668.0802,668.0808,-0.111754964,-0.398321601,0,0,0,,0,221,221,378,1,379,MAS,DIS,150,0,sonido,la,6,,,,,
,,,,,,,6e964b5132c2ea0222cac9fd,67d30250bc6dd184d4aaad81,67d7e9a6201df410f7a7df5f,2025-03-17_02h22.15.586,Tarea de clasificación semántica,2024.2.5,MacIntel,57.80346821,,,,,,,,,,,,,,,,,,,,,,,668.0824,669.1099,s,1,0.3477,,0.3477,1,669.11,669.6105,,669.6107,669.6108,-0.111754964,-0.398321601,0,0,0,,0,222,222,398,1,399,MAS,DIS,150,0,espejo,la,6,,,,,
,,,,,,,6e964b5132c2ea0222cac9fd,67d30250bc6dd184d4aaad81,67d7e9a6201df410f7a7df5f,2025-03-17_02h22.15.586,Tarea de clasificación semántica,2024.2.5,MacIntel,57.80346821,,,,,,,,,,,,,,,,,,,,,,,669.6138,670.7608,l,1,0.4698,,0.4698,1,670.7611,671.2596,,671.2597,671.2598,-0.111754964,-0.398321601,0,0,0,,0,223,223,493,1,494,MAS,AGR,150,1,toro,el,4,,,,,
,,,,,,,6e964b5132c2ea0222cac9fd,67d30250bc6dd184d4aaad81,67d7e9a6201df410f7a7df5f,2025-03-17_02h22.15.586,Tarea de clasificación semántica,2024.2.5,MacIntel,57.80346821,,,,,,,,,,,,,,,,,,,,,,,671.2615,672.6088,l,1,0.6749,,0.6749,1,672.6089,673.1304,,673.1305,673.1307,-0.111754964,-0.398321601,0,0,0,,0,224,224,464,1,465,FEM,DIS,150,1,cabra,el,5,,,,,
,,,,,,,6e964b5132c2ea0222cac9fd,67d30250bc6dd184d4aaad81,67d7e9a6201df410f7a7df5f,2025-03-17_02h22.15.586,Tarea de clasificación semántica,2024.2.5,MacIntel,57.80346821,,,,,,,,,,,,,,,,,,,,,,,673.1324,674.1729,s,1,0.3713,,0.3713,1,674.1729,674.6728,,674.6739,674.6753,-0.111754964,-0.398321601,0,0,0,,0,225,225,377,1,378,MAS,AGR,150,0,seguro,el,6,,,,,
,,,,,,,6e964b5132c2ea0222cac9fd,67d30250bc6dd184d4aaad81,67d7e9a6201df410f7a7df5f,2025-03-17_02h22.15.586,Tarea de clasificación semántica,2024.2.5,MacIntel,57.80346821,,,,,,,,,,,,,,,,,,,,,,,674.6764,675.8051,l,0,0.4435,,0.4435,0,675.8058,676.306,,676.306,676.3062,-0.111754964,-0.398321601,0,0,0,,0,226,226,132,1,133,FEM,DIS,150,0,pluma,el,5,,,,,
,,,,,,,6e964b5132c2ea0222cac9fd,67d30250bc6dd184d4aaad81,67d7e9a6201df410f7a7df5f,2025-03-17_02h22.15.586,Tarea de clasificación semántica,2024.2.5,MacIntel,57.80346821,,,,,,,,,,,,,,,,,,,,,,,676.3079,677.455,s,0,0.4738,,0.4738,0,677.4551,677.9576,,677.9578,677.9579,-0.111754964,-0.398321601,0,0,0,,0,227,227,529,1,530,MAS,AGR,150,1,topo,el,4,,,,,
,,,,,,,6e964b5132c2ea0222cac9fd,67d30250bc6dd184d4aaad81,67d7e9a6201df410f7a7df5f,2025-03-17_02h22.15.586,Tarea de clasificación semántica,2024.2.5,MacIntel,57.80346821,,,,,,,,,,,,,,,,,,,,,,,677.9593,679.0389,s,1,0.4001,,0.4001,1,679.0396,679.5372,,679.5374,679.5375,-0.111754964,-0.398321601,0,0,0,,0,228,228,366,1,367,MAS,DIS,150,0,cuello,la,6,,,,,
,,,,,,,6e964b5132c2ea0222cac9fd,67d30250bc6dd184d4aaad81,67d7e9a6201df410f7a7df5f,2025-03-17_02h22.15.586,Tarea de clasificación semántica,2024.2.5,MacIntel,57.80346821,,,,,,,,,,,,,,,,,,,,,,,679.5386,680.6521,s,1,0.4379,,0.4379,1,680.6522,681.1402,,681.1403,681.1405,-0.111754964,-0.398321601,0,0,0,,0,229,229,172,1,173,FEM,DIS,150,0,camisa,el,6,,,,,
,,,,,,,6e964b5132c2ea0222cac9fd,67d30250bc6dd184d4aaad81,67d7e9a6201df410f7a7df5f,2025-03-17_02h22.15.586,Tarea de clasificación semántica,2024.2.5,MacIntel,57.80346821,,,,,,,,,,,,,,,,,,,,,,,681.1416,682.6518,l,0,0.841,,0.841,0,682.6528,683.1516,,683.154,683.156,-0.111754964,-0.398321601,0,0,0,,0,230,230,67,1,68,FEM,AGR,150,0,lana,la,4,,,,,
,,,,,,,6e964b5132c2ea0222cac9fd,67d30250bc6dd184d4aaad81,67d7e9a6201df410f7a7df5f,2025-03-17_02h22.15.586,Tarea de clasificación semántica,2024.2.5,MacIntel,57.80346821,,,,,,,,,,,,,,,,,,,,,,,683.1577,684.3498,l,0,0.5108,,0.5108,0,684.3499,684.8496,,684.8497,684.8498,-0.111754964,-0.398321601,0,0,0,,0,231,231,19,1,20,FEM,AGR,150,0,obra,la,4,,,,,
,,,,,,,6e964b5132c2ea0222cac9fd,67d30250bc6dd184d4aaad81,67d7e9a6201df410f7a7df5f,2025-03-17_02h22.15.586,Tarea de clasificación semántica,2024.2.5,MacIntel,57.80346821,,,,,,,,,,,,,,,,,,,,,,,684.8515,686.032,s,1,0.5162,,0.5162,1,686.0328,686.5321,,686.5322,686.5323,-0.111754964,-0.398321601,0,0,0,,0,232,232,331,1,332,MAS,AGR,150,0,ritmo,el,5,,,,,
,,,,,,,6e964b5132c2ea0222cac9fd,67d30250bc6dd184d4aaad81,67d7e9a6201df410f7a7df5f,2025-03-17_02h22.15.586,Tarea de clasificación semántica,2024.2.5,MacIntel,57.80346821,,,,,,,,,,,,,,,,,,,,,,,686.5334,687.7846,s,1,0.5728,,0.5728,1,687.7847,688.2811,,688.2813,688.2814,-0.111754964,-0.398321601,0,0,0,,0,233,233,284,1,285,MAS,DIS,150,0,libro,la,5,,,,,
,,,,,,,6e964b5132c2ea0222cac9fd,67d30250bc6dd184d4aaad81,67d7e9a6201df410f7a7df5f,2025-03-17_02h22.15.586,Tarea de clasificación semántica,2024.2.5,MacIntel,57.80346821,,,,,,,,,,,,,,,,,,,,,,,688.2826,689.4644,l,1,0.4949,,0.4949,1,689.4645,689.9627,,689.9627,689.9628,-0.111754964,-0.398321601,0,0,0,,0,234,234,454,1,455,FEM,DIS,150,1,gata,el,4,,,,,
,,,,,,,6e964b5132c2ea0222cac9fd,67d30250bc6dd184d4aaad81,67d7e9a6201df410f7a7df5f,2025-03-17_02h22.15.586,Tarea de clasificación semántica,2024.2.5,MacIntel,57.80346821,,,,,,,,,,,,,,,,,,,,,,,689.9642,691.2517,s,1,0.6238,,0.6238,1,691.2517,691.7503,,691.7504,691.7512,-0.111754964,-0.398321601,0,0,0,,0,235,235,244,1,245,MAS,DIS,150,0,nene,la,4,,,,,
,,,,,,,6e964b5132c2ea0222cac9fd,67d30250bc6dd184d4aaad81,67d7e9a6201df410f7a7df5f,2025-03-17_02h22.15.586,Tarea de clasificación semántica,2024.2.5,MacIntel,57.80346821,,,,,,,,,,,,,,,,,,,,,,,691.7525,692.8534,s,1,0.4303,,0.4303,1,692.8536,693.3447,,693.3463,693.3473,-0.111754964,-0.398321601,0,0,0,,0,236,236,9,1,10,FEM,AGR,150,0,niña,la,4,,,,,
,,,,,,,6e964b5132c2ea0222cac9fd,67d30250bc6dd184d4aaad81,67d7e9a6201df410f7a7df5f,2025-03-17_02h22.15.586,Tarea de clasificación semántica,2024.2.5,MacIntel,57.80346821,,,,,,,,,,,,,,,,,,,,,,,693.3482,694.8631,s,1,0.8343,,0.8343,1,694.8632,695.3588,,695.3588,695.3589,-0.111754964,-0.398321601,0,0,0,,0,237,237,57,1,58,FEM,AGR,150,0,loca,la,4,,,,,
,,,,,,,6e964b5132c2ea0222cac9fd,67d30250bc6dd184d4aaad81,67d7e9a6201df410f7a7df5f,2025-03-17_02h22.15.586,Tarea de clasificación semántica,2024.2.5,MacIntel,57.80346821,,,,,,,,,,,,,,,,,,,,,,,695.3601,696.392,s,1,0.3634,,0.3634,1,696.3922,696.8948,,696.8948,696.895,-0.111754964,-0.398321601,0,0,0,,0,238,238,163,1,164,FEM,AGR,150,0,imagen,la,6,,,,,
,,,,,,,6e964b5132c2ea0222cac9fd,67d30250bc6dd184d4aaad81,67d7e9a6201df410f7a7df5f,2025-03-17_02h22.15.586,Tarea de clasificación semántica,2024.2.5,MacIntel,57.80346821,,,,,,,,,,,,,,,,,,,,,,,696.8962,698.0789,s,1,0.5106,,0.5106,1,698.0789,698.5785,,698.5785,698.5787,-0.111754964,-0.398321601,0,0,0,,0,239,239,128,1,129,FEM,DIS,150,0,tarta,el,5,,,,,
,,,,,,,6e964b5132c2ea0222cac9fd,67d30250bc6dd184d4aaad81,67d7e9a6201df410f7a7df5f,2025-03-17_02h22.15.586,Tarea de clasificación semántica,2024.2.5,MacIntel,57.80346821,,,,,,,,,,,,,,,,,,,,,,,698.5799,699.8232,s,1,0.5627,,0.5627,1,699.8233,700.3236,,700.3237,700.3238,-0.111754964,-0.398321601,0,0,0,,0,240,240,110,1,111,FEM,DIS,150,0,torre,el,5,,,,,
,,,,,,,6e964b5132c2ea0222cac9fd,67d30250bc6dd184d4aaad81,67d7e9a6201df410f7a7df5f,2025-03-17_02h22.15.586,Tarea de clasificación semántica,2024.2.5,MacIntel,57.80346821,,,,,,,,,,,,,,,,,,,,,,,700.3255,701.4736,s,1,0.4755,,0.4755,1,701.4737,701.9731,,701.9745,701.9755,-0.111754964,-0.398321601,0,0,0,,0,241,241,29,1,30,FEM,AGR,150,0,moda,la,4,,,,,
,,,,,,,6e964b5132c2ea0222cac9fd,67d30250bc6dd184d4aaad81,67d7e9a6201df410f7a7df5f,2025-03-17_02h22.15.586,Tarea de clasificación semántica,2024.2.5,MacIntel,57.80346821,,,,,,,,,,,,,,,,,,,,,,,701.9769,703.1058,s,1,0.4563,,0.4563,1,703.1059,703.6045,,703.6045,703.6046,-0.111754964,-0.398321601,0,0,0,,0,242,242,318,1,319,MAS,DIS,150,0,turno,la,5,,,,,
,,,,,,,6e964b5132c2ea0222cac9fd,67d30250bc6dd184d4aaad81,67d7e9a6201df410f7a7df5f,2025-03-17_02h22.15.586,Tarea de clasificación semántica,2024.2.5,MacIntel,57.80346821,,,,,,,,,,,,,,,,,,,,,,,703.606,704.6891,s,0,0.4135,,0.4135,0,704.6904,705.1989,,705.199,705.199,-0.111754964,-0.398321601,0,0,0,,0,243,243,443,1,444,FEM,AGR,150,1,nutria,la,6,,,,,
,,,,,,,6e964b5132c2ea0222cac9fd,67d30250bc6dd184d4aaad81,67d7e9a6201df410f7a7df5f,2025-03-17_02h22.15.586,Tarea de clasificación semántica,2024.2.5,MacIntel,57.80346821,,,,,,,,,,,,,,,,,,,,,,,705.2,706.3695,s,1,0.5023,,0.5023,1,706.3705,706.8744,,706.8745,706.8746,-0.111754964,-0.398321601,0,0,0,,0,244,244,312,1,313,MAS,DIS,150,0,calor,la,5,,,,,
,,,,,,,6e964b5132c2ea0222cac9fd,67d30250bc6dd184d4aaad81,67d7e9a6201df410f7a7df5f,2025-03-17_02h22.15.586,Tarea de clasificación semántica,2024.2.5,MacIntel,57.80346821,,,,,,,,,,,,,,,,,,,,,,,706.8757,708.0511,l,1,0.4922,,0.4922,1,708.0513,708.5508,,708.5509,708.5511,-0.111754964,-0.398321601,0,0,0,,0,245,245,540,1,541,MAS,DIS,150,1,pulpo,la,5,,,,,
,,,,,,,6e964b5132c2ea0222cac9fd,67d30250bc6dd184d4aaad81,67d7e9a6201df410f7a7df5f,2025-03-17_02h22.15.586,Tarea de clasificación semántica,2024.2.5,MacIntel,57.80346821,,,,,,,,,,,,,,,,,,,,,,,708.5532,709.7504,l,1,0.5192,,0.5192,1,709.7505,710.2543,,710.2545,710.2546,-0.111754964,-0.398321601,0,0,0,,0,246,246,429,1,430,FEM,AGR,150,1,cabra,la,5,,,,,
,,,,,,,6e964b5132c2ea0222cac9fd,67d30250bc6dd184d4aaad81,67d7e9a6201df410f7a7df5f,2025-03-17_02h22.15.586,Tarea de clasificación semántica,2024.2.5,MacIntel,57.80346821,,,,,,,,,,,,,,,,,,,,,,,710.2556,711.3159,l,1,0.3818,,0.3818,1,711.316,711.815,,711.8167,711.8183,-0.111754964,-0.398321601,0,0,0,,0,247,247,444,1,445,FEM,DIS,150,1,jirafa,el,6,,,,,
,,,,,,,6e964b5132c2ea0222cac9fd,67d30250bc6dd184d4aaad81,67d7e9a6201df410f7a7df5f,2025-03-17_02h22.15.586,Tarea de clasificación semántica,2024.2.5,MacIntel,57.80346821,,,,,,,,,,,,,,,,,,,,,,,711.8198,713.0308,s,1,0.5389,,0.5389,1,713.0309,713.5646,,713.5648,713.5649,-0.111754964,-0.398321601,0,0,0,,0,248,248,381,1,382,MAS,AGR,150,0,jardín,el,6,,,,,
,,,,,,,6e964b5132c2ea0222cac9fd,67d30250bc6dd184d4aaad81,67d7e9a6201df410f7a7df5f,2025-03-17_02h22.15.586,Tarea de clasificación semántica,2024.2.5,MacIntel,57.80346821,,,,,,,,,,,,,,,,,,,,,,,713.5659,715.0626,s,1,0.8158,,0.8158,1,715.0627,715.5635,,715.5637,715.5638,-0.111754964,-0.398321601,0,0,0,,0,249,249,192,1,193,FEM,DIS,150,0,cabina,el,6,,,,,
,,,,,,,6e964b5132c2ea0222cac9fd,67d30250bc6dd184d4aaad81,67d7e9a6201df410f7a7df5f,2025-03-17_02h22.15.586,Tarea de clasificación semántica,2024.2.5,MacIntel,57.80346821,,,,,,,,,,,,,,,,,,,,,,,715.5653,716.5999,s,1,0.36,,0.36,1,716.5999,717.0948,,717.0949,717.095,-0.111754964,-0.398321601,0,0,0,,0,250,250,3,1,4,FEM,AGR,150,0,hora,la,4,,,,,
,,,,,,,6e964b5132c2ea0222cac9fd,67d30250bc6dd184d4aaad81,67d7e9a6201df410f7a7df5f,2025-03-17_02h22.15.586,Tarea de clasificación semántica,2024.2.5,MacIntel,57.80346821,,,,,,,,,,,,,,,,,,,,,,,717.0966,718.1112,s,1,0.3403,,0.3403,1,718.1112,718.6111,,718.6112,718.6114,-0.111754964,-0.398321601,0,0,0,,0,251,251,230,1,231,MAS,DIS,150,0,lago,la,4,,,,,
,,,,,,,6e964b5132c2ea0222cac9fd,67d30250bc6dd184d4aaad81,67d7e9a6201df410f7a7df5f,2025-03-17_02h22.15.586,Tarea de clasificación semántica,2024.2.5,MacIntel,57.80346821,,,,,,,,,,,,,,,,,,,,,,,718.6128,719.6096,s,0,0.3216,,0.3216,0,719.6102,720.1105,,720.1121,720.1144,-0.111754964,-0.398321601,0,0,0,,0,252,252,435,1,436,FEM,AGR,150,1,abeja,la,5,,,,,
,,,,,,,6e964b5132c2ea0222cac9fd,67d30250bc6dd184d4aaad81,67d7e9a6201df410f7a7df5f,2025-03-17_02h22.15.586,Tarea de clasificación semántica,2024.2.5,MacIntel,57.80346821,,,,,,,,,,,,,,,,,,,,,,,720.1157,721.2103,l,1,0.4223,,0.4223,1,721.2111,721.7084,,721.7084,721.7086,-0.111754964,-0.398321601,0,0,0,,0,253,253,527,1,528,MAS,AGR,150,1,pato,el,4,,,,,
,,,,,,,6e964b5132c2ea0222cac9fd,67d30250bc6dd184d4aaad81,67d7e9a6201df410f7a7df5f,2025-03-17_02h22.15.586,Tarea de clasificación semántica,2024.2.5,MacIntel,57.80346821,,,,,,,,,,,,,,,,,,,,,,,721.71,722.7907,s,1,0.3983,,0.3983,1,722.7908,723.2924,,723.2925,723.2927,-0.111754964,-0.398321601,0,0,0,,0,254,254,210,1,211,MAS,DIS,150,0,niño,la,4,,,,,
,,,,,,,6e964b5132c2ea0222cac9fd,67d30250bc6dd184d4aaad81,67d7e9a6201df410f7a7df5f,2025-03-17_02h22.15.586,Tarea de clasificación semántica,2024.2.5,MacIntel,57.80346821,,,,,,,,,,,,,,,,,,,,,,,723.2938,724.54,l,0,0.5648,,0.5648,0,724.5409,725.0409,,725.0409,725.041,-0.111754964,-0.398321601,0,0,0,,0,255,255,263,1,264,MAS,AGR,150,0,yate,el,4,,,,,
,,,,,,,6e964b5132c2ea0222cac9fd,67d30250bc6dd184d4aaad81,67d7e9a6201df410f7a7df5f,2025-03-17_02h22.15.586,Tarea de clasificación semántica,2024.2.5,MacIntel,57.80346821,,,,,,,,,,,,,,,,,,,,,,,725.0422,726.126,s,1,0.4092,,0.4092,1,726.1269,726.6228,,726.6228,726.6229,-0.111754964,-0.398321601,0,0,0,,0,256,256,119,1,120,FEM,AGR,150,0,tribu,la,5,,,,,
,,,,,,,6e964b5132c2ea0222cac9fd,67d30250bc6dd184d4aaad81,67d7e9a6201df410f7a7df5f,2025-03-17_02h22.15.586,Tarea de clasificación semántica,2024.2.5,MacIntel,57.80346821,,,,,,,,,,,,,,,,,,,,,,,726.6241,727.5576,s,0,0.2554,,0.2554,0,727.5583,728.0542,,728.0543,728.0544,-0.111754964,-0.398321601,0,0,0,,0,257,257,483,1,484,FEM,AGR,150,1,gamba,la,5,,,,,
,,,,,,,6e964b5132c2ea0222cac9fd,67d30250bc6dd184d4aaad81,67d7e9a6201df410f7a7df5f,2025-03-17_02h22.15.586,Tarea de clasificación semántica,2024.2.5,MacIntel,57.80346821,,,,,,,,,,,,,,,,,,,,,,,728.0556,728.9703,s,1,0.2312,,0.2312,1,728.9709,729.4694,,729.4705,729.4719,-0.111754964,-0.398321601,0,0,0,,0,258,258,157,1,158,FEM,AGR,150,0,abuela,la,6,,,,,
,,,,,,,6e964b5132c2ea0222cac9fd,67d30250bc6dd184d4aaad81,67d7e9a6201df410f7a7df5f,2025-03-17_02h22.15.586,Tarea de clasificación semántica,2024.2.5,MacIntel,57.80346821,,,,,,,,,,,,,,,,,,,,,,,729.4733,730.4539,s,1,0.2893,,0.2893,1,730.4541,730.9531,,730.9532,730.9535,-0.111754964,-0.398321601,0,0,0,,0,259,259,2,1,3,FEM,DIS,150,0,cosa,el,4,,,,,
,,,,,,,6e964b5132c2ea0222cac9fd,67d30250bc6dd184d4aaad81,67d7e9a6201df410f7a7df5f,2025-03-17_02h22.15.586,Tarea de clasificación semántica,2024.2.5,MacIntel,57.80346821,,,,,,,,,,,,,,,,,,,,,,,730.9552,731.8193,s,0,0.1921,,0.1921,0,731.8201,732.3247,,732.3248,732.325,-0.111754964,-0.398321601,0,0,0,,0,260,260,522,1,523,MAS,DIS,150,1,gato,la,4,,,,,
,,,,,,,6e964b5132c2ea0222cac9fd,67d30250bc6dd184d4aaad81,67d7e9a6201df410f7a7df5f,2025-03-17_02h22.15.586,Tarea de clasificación semántica,2024.2.5,MacIntel,57.80346821,,,,,,,,,,,,,,,,,,,,,,,732.3261,733.3512,s,1,0.3488,,0.3488,1,733.3521,733.8512,,733.8513,733.8515,-0.111754964,-0.398321601,0,0,0,,0,261,261,99,1,100,FEM,AGR,150,0,cinta,la,5,,,,,
,,,,,,,6e964b5132c2ea0222cac9fd,67d30250bc6dd184d4aaad81,67d7e9a6201df410f7a7df5f,2025-03-17_02h22.15.586,Tarea de clasificación semántica,2024.2.5,MacIntel,57.80346821,,,,,,,,,,,,,,,,,,,,,,,733.853,734.951,s,0,0.3728,,0.3728,0,734.9525,735.4395,,735.4396,735.4397,-0.111754964,-0.398321601,0,0,0,,0,262,262,441,1,442,FEM,AGR,150,1,gacela,la,6,,,,,
,,,,,,,6e964b5132c2ea0222cac9fd,67d30250bc6dd184d4aaad81,67d7e9a6201df410f7a7df5f,2025-03-17_02h22.15.586,Tarea de clasificación semántica,2024.2.5,MacIntel,57.80346821,,,,,,,,,,,,,,,,,,,,,,,735.4406,736.334,s,1,0.233,,0.233,1,736.3348,736.8265,,736.8266,736.8268,-0.111754964,-0.398321601,0,0,0,,0,263,263,389,1,390,MAS,AGR,150,0,examen,el,6,,,,,
,,,,,,,6e964b5132c2ea0222cac9fd,67d30250bc6dd184d4aaad81,67d7e9a6201df410f7a7df5f,2025-03-17_02h22.15.586,Tarea de clasificación semántica,2024.2.5,MacIntel,57.80346821,,,,,,,,,,,,,,,,,,,,,,,736.8282,737.8146,s,1,0.3044,,0.3044,1,737.8147,738.3151,,738.3172,738.3191,-0.111754964,-0.398321601,0,0,0,,0,264,264,106,1,107,FEM,DIS,150,0,pieza,el,5,,,,,
,,,,,,,6e964b5132c2ea0222cac9fd,67d30250bc6dd184d4aaad81,67d7e9a6201df410f7a7df5f,2025-03-17_02h22.15.586,Tarea de clasificación semántica,2024.2.5,MacIntel,57.80346821,,,,,,,,,,,,,,,,,,,,,,,738.3204,739.4185,s,1,0.4275,,0.4275,1,739.4186,739.9283,,739.9283,739.9285,-0.111754964,-0.398321601,0,0,0,,0,265,265,88,1,89,FEM,DIS,150,0,pista,el,5,,,,,
,,,,,,,6e964b5132c2ea0222cac9fd,67d30250bc6dd184d4aaad81,67d7e9a6201df410f7a7df5f,2025-03-17_02h22.15.586,Tarea de clasificación semántica,2024.2.5,MacIntel,57.80346821,,,,,,,,,,,,,,,,,,,,,,,739.9299,740.9458,s,0,0.3455,,0.3455,0,740.9467,741.4467,,741.4468,741.4469,-0.111754964,-0.398321601,0,0,0,,0,266,266,447,1,448,FEM,AGR,150,1,piraña,la,6,,,,,
,,,,,,,6e964b5132c2ea0222cac9fd,67d30250bc6dd184d4aaad81,67d7e9a6201df410f7a7df5f,2025-03-17_02h22.15.586,Tarea de clasificación semántica,2024.2.5,MacIntel,57.80346821,,,,,,,,,,,,,,,,,,,,,,,741.4487,742.3058,s,1,0.1806,,0.1806,1,742.3068,742.7965,,742.7965,742.7966,-0.111754964,-0.398321601,0,0,0,,0,267,267,179,1,180,FEM,AGR,150,0,sombra,la,6,,,,,
,,,,,,,6e964b5132c2ea0222cac9fd,67d30250bc6dd184d4aaad81,67d7e9a6201df410f7a7df5f,2025-03-17_02h22.15.586,Tarea de clasificación semántica,2024.2.5,MacIntel,57.80346821,,,,,,,,,,,,,,,,,,,,,,,742.7975,743.8603,s,1,0.3737,,0.3737,1,743.8603,744.3547,,744.3548,744.3551,-0.111754964,-0.398321601,0,0,0,,0,268,268,104,1,105,FEM,DIS,150,0,plata,el,5,,,,,
,,,,,,,6e964b5132c2ea0222cac9fd,67d30250bc6dd184d4aaad81,67d7e9a6201df410f7a7df5f,2025-03-17_02h22.15.586,Tarea de clasificación semántica,2024.2.5,MacIntel,57.80346821,,,,,,,,,,,,,,,,,,,,,,,744.3564,745.0933,s,1,0.0723,,0.0723,1,745.0934,745.5965,,745.5977,745.5988,-0.111754964,-0.398321601,0,0,0,,0,269,269,303,1,304,MAS,AGR,150,0,fondo,el,5,,,,,
,,,,,,,6e964b5132c2ea0222cac9fd,67d30250bc6dd184d4aaad81,67d7e9a6201df410f7a7df5f,2025-03-17_02h22.15.586,Tarea de clasificación semántica,2024.2.5,MacIntel,57.80346821,,,,,,,,,,,,,,,,,,,,,,,745.6,746.5256,s,1,0.2385,,0.2385,1,746.5256,747.0249,,747.025,747.0251,-0.111754964,-0.398321601,0,0,0,,0,270,270,87,1,88,FEM,AGR,150,0,lista,la,5,,,,,
,,,,,,,6e964b5132c2ea0222cac9fd,67d30250bc6dd184d4aaad81,67d7e9a6201df410f7a7df5f,2025-03-17_02h22.15.586,Tarea de clasificación semántica,2024.2.5,MacIntel,57.80346821,,,,,,,,,,,,,,,,,,,,,,,747.0266,748.0244,s,1,0.3088,,0.3088,1,748.0245,748.5261,,748.5262,748.5264,-0.111754964,-0.398321601,0,0,0,,0,271,271,278,1,279,MAS,DIS,150,0,chico,la,5,,,,,
,,,,,,,6e964b5132c2ea0222cac9fd,67d30250bc6dd184d4aaad81,67d7e9a6201df410f7a7df5f,2025-03-17_02h22.15.586,Tarea de clasificación semántica,2024.2.5,MacIntel,57.80346821,,,,,,,,,,,,,,,,,,,,,,,748.5278,749.5248,s,1,0.3346,,0.3346,1,749.5249,750.023,,750.0231,750.0232,-0.111754964,-0.398321601,0,0,0,,0,272,272,364,1,365,MAS,DIS,150,0,abuelo,la,6,,,,,
,,,,,,,6e964b5132c2ea0222cac9fd,67d30250bc6dd184d4aaad81,67d7e9a6201df410f7a7df5f,2025-03-17_02h22.15.586,Tarea de clasificación semántica,2024.2.5,MacIntel,57.80346821,,,,,,,,,,,,,,,,,,,,,,,750.025,750.9719,s,0,0.2709,,0.2709,0,750.9725,751.472,,751.4721,751.4721,-0.111754964,-0.398321601,0,0,0,,0,273,273,490,1,491,MAS,DIS,150,1,pavo,la,4,,,,,
,,,,,,,6e964b5132c2ea0222cac9fd,67d30250bc6dd184d4aaad81,67d7e9a6201df410f7a7df5f,2025-03-17_02h22.15.586,Tarea de clasificación semántica,2024.2.5,MacIntel,57.80346821,,,,,,,,,,,,,,,,,,,,,,,751.4733,752.2549,s,0,0.1013,,0.1013,0,752.255,752.7544,,752.7544,752.7546,-0.111754964,-0.398321601,0,0,0,,0,274,274,551,1,552,MAS,AGR,150,1,búho,el,4,,,,,
